ID,diagnosis,class,age,AoO,english_hours_week,speaking,understanding,reading,writing,speak_daily,list_daily,read_daily,write_daily,speak_school,list_school,read_school,write_school,books_en,books_it,articles_en,articles_it,comics_en,comics_it,posts_en,posts_it,subt_en,subt_it,trial_number,reaction_time,response,word_a,word_b,target,Word,FREQcount
LAE02,NO,1,14.2,6,4,3,4,3,4,0.25,0.25,0.25,0.25,0.25,0.25,0.25,0.25,Never,Always,Sometimes,Sometimes,Never,Rarely,Often,Sometimes,Rarely,Often,1,13395,interesting,interesting,intresting,interesting,interesting,4421
LAE02,NO,1,14.2,6,4,3,4,3,4,0.25,0.25,0.25,0.25,0.25,0.25,0.25,0.25,Never,Always,Sometimes,Sometimes,Never,Rarely,Often,Sometimes,Rarely,Often,2,13234,example,exsample,example,example,example,1527
LAE02,NO,1,14.2,6,4,3,4,3,4,0.25,0.25,0.25,0.25,0.25,0.25,0.25,0.25,Never,Always,Sometimes,Sometimes,Never,Rarely,Often,Sometimes,Rarely,Often,3,10645,wheat,wheet,wheat,wheat,wheat,293
LAE02,NO,1,14.2,6,4,3,4,3,4,0.25,0.25,0.25,0.25,0.25,0.25,0.25,0.25,Never,Always,Sometimes,Sometimes,Never,Rarely,Often,Sometimes,Rarely,Often,4,15926,believe,believe,beleave,believe,believe,31882
LAE02,NO,1,14.2,6,4,3,4,3,4,0.25,0.25,0.25,0.25,0.25,0.25,0.25,0.25,Never,Always,Sometimes,Sometimes,Never,Rarely,Often,Sometimes,Rarely,Often,5,14282,deep,deap,deep,deep,deep,3896
LAE02,NO,1,14.2,6,4,3,4,3,4,0.25,0.25,0.25,0.25,0.25,0.25,0.25,0.25,Never,Always,Sometimes,Sometimes,Never,Rarely,Often,Sometimes,Rarely,Often,6,13235,scare,scare,scair,scare,scare,1712
LAE02,NO,1,14.2,6,4,3,4,3,4,0.25,0.25,0.25,0.25,0.25,0.25,0.25,0.25,Never,Always,Sometimes,Sometimes,Never,Rarely,Often,Sometimes,Rarely,Often,7,11877,salad,salad,sallad,salad,salad,868
LAE02,NO,1,14.2,6,4,3,4,3,4,0.25,0.25,0.25,0.25,0.25,0.25,0.25,0.25,Never,Always,Sometimes,Sometimes,Never,Rarely,Often,Sometimes,Rarely,Often,8,11556,sudden,sudden,suddin,sudden,sudden,1707
LAE02,NO,1,14.2,6,4,3,4,3,4,0.25,0.25,0.25,0.25,0.25,0.25,0.25,0.25,Never,Always,Sometimes,Sometimes,Never,Rarely,Often,Sometimes,Rarely,Often,9,1183,sheep,sheep,sheap,sheep,sheep,685
LAE02,NO,1,14.2,6,4,3,4,3,4,0.25,0.25,0.25,0.25,0.25,0.25,0.25,0.25,Never,Always,Sometimes,Sometimes,Never,Rarely,Often,Sometimes,Rarely,Often,10,16836,assure,assure,ashure,assure,assure,1021
LAE02,NO,1,14.2,6,4,3,4,3,4,0.25,0.25,0.25,0.25,0.25,0.25,0.25,0.25,Never,Always,Sometimes,Sometimes,Never,Rarely,Often,Sometimes,Rarely,Often,11,14834,please,pleese,please,please,please,56149
LAE02,NO,1,14.2,6,4,3,4,3,4,0.25,0.25,0.25,0.25,0.25,0.25,0.25,0.25,Never,Always,Sometimes,Sometimes,Never,Rarely,Often,Sometimes,Rarely,Often,12,12684,between,between,betwean,between,between,8932
LAE02,NO,1,14.2,6,4,3,4,3,4,0.25,0.25,0.25,0.25,0.25,0.25,0.25,0.25,Never,Always,Sometimes,Sometimes,Never,Rarely,Often,Sometimes,Rarely,Often,13,13378,roar,roar,rore,roar,roar,205
LAE02,NO,1,14.2,6,4,3,4,3,4,0.25,0.25,0.25,0.25,0.25,0.25,0.25,0.25,Never,Always,Sometimes,Sometimes,Never,Rarely,Often,Sometimes,Rarely,Often,14,13078,nice,nice,nise,nice,nice,33125
LAE02,NO,1,14.2,6,4,3,4,3,4,0.25,0.25,0.25,0.25,0.25,0.25,0.25,0.25,Never,Always,Sometimes,Sometimes,Never,Rarely,Often,Sometimes,Rarely,Often,15,16686,nusance,nusance,nuisance,nuisance,nuisance,164
LAE02,NO,1,14.2,6,4,3,4,3,4,0.25,0.25,0.25,0.25,0.25,0.25,0.25,0.25,Never,Always,Sometimes,Sometimes,Never,Rarely,Often,Sometimes,Rarely,Often,16,15081,hearth,harth,hearth,hearth,hearth,34
LAE02,NO,1,14.2,6,4,3,4,3,4,0.25,0.25,0.25,0.25,0.25,0.25,0.25,0.25,Never,Always,Sometimes,Sometimes,Never,Rarely,Often,Sometimes,Rarely,Often,17,15403,several,several,sevral,several,several,1978
LAE02,NO,1,14.2,6,4,3,4,3,4,0.25,0.25,0.25,0.25,0.25,0.25,0.25,0.25,Never,Always,Sometimes,Sometimes,Never,Rarely,Often,Sometimes,Rarely,Often,18,1492,lake,lake,laik,lake,lake,1836
LAE02,NO,1,14.2,6,4,3,4,3,4,0.25,0.25,0.25,0.25,0.25,0.25,0.25,0.25,Never,Always,Sometimes,Sometimes,Never,Rarely,Often,Sometimes,Rarely,Often,19,16449,important,importent,important,important,important,10587
LAE02,NO,1,14.2,6,4,3,4,3,4,0.25,0.25,0.25,0.25,0.25,0.25,0.25,0.25,Never,Always,Sometimes,Sometimes,Never,Rarely,Often,Sometimes,Rarely,Often,20,20846,thumb,thum,thumb,thumb,thumb,603
LAE02,NO,1,14.2,6,4,3,4,3,4,0.25,0.25,0.25,0.25,0.25,0.25,0.25,0.25,Never,Always,Sometimes,Sometimes,Never,Rarely,Often,Sometimes,Rarely,Often,21,13399,hurt,hert,hurt,hurt,hurt,12564
LAE02,NO,1,14.2,6,4,3,4,3,4,0.25,0.25,0.25,0.25,0.25,0.25,0.25,0.25,Never,Always,Sometimes,Sometimes,Never,Rarely,Often,Sometimes,Rarely,Often,22,13483,every,evry,every,every,every,28007
LAE02,NO,1,14.2,6,4,3,4,3,4,0.25,0.25,0.25,0.25,0.25,0.25,0.25,0.25,Never,Always,Sometimes,Sometimes,Never,Rarely,Often,Sometimes,Rarely,Often,23,13554,demon,demon,deamon,demon,demon,1593
LAE02,NO,1,14.2,6,4,3,4,3,4,0.25,0.25,0.25,0.25,0.25,0.25,0.25,0.25,Never,Always,Sometimes,Sometimes,Never,Rarely,Often,Sometimes,Rarely,Often,24,13412,basement,baisment,basement,basement,basement,1074
LAE02,NO,1,14.2,6,4,3,4,3,4,0.25,0.25,0.25,0.25,0.25,0.25,0.25,0.25,Never,Always,Sometimes,Sometimes,Never,Rarely,Often,Sometimes,Rarely,Often,25,14522,heavy,hevvy,heavy,heavy,heavy,2412
LAE02,NO,1,14.2,6,4,3,4,3,4,0.25,0.25,0.25,0.25,0.25,0.25,0.25,0.25,Never,Always,Sometimes,Sometimes,Never,Rarely,Often,Sometimes,Rarely,Often,26,17404,senators,senaters,senators,senators,senators,120
LAE02,NO,1,14.2,6,4,3,4,3,4,0.25,0.25,0.25,0.25,0.25,0.25,0.25,0.25,Never,Always,Sometimes,Sometimes,Never,Rarely,Often,Sometimes,Rarely,Often,27,37487,resourse,resource,resourse,resource,resource,83
LAE02,NO,1,14.2,6,4,3,4,3,4,0.25,0.25,0.25,0.25,0.25,0.25,0.25,0.25,Never,Always,Sometimes,Sometimes,Never,Rarely,Often,Sometimes,Rarely,Often,28,2484,purched,perched,purched,perched,perched,30
LAE02,NO,1,14.2,6,4,3,4,3,4,0.25,0.25,0.25,0.25,0.25,0.25,0.25,0.25,Never,Always,Sometimes,Sometimes,Never,Rarely,Often,Sometimes,Rarely,Often,29,13645,compliment,compliment,complimant,compliment,compliment,523
LAE02,NO,1,14.2,6,4,3,4,3,4,0.25,0.25,0.25,0.25,0.25,0.25,0.25,0.25,Never,Always,Sometimes,Sometimes,Never,Rarely,Often,Sometimes,Rarely,Often,30,18195,applause,applause,aplause,applause,applause,576
LAE02,NO,1,14.2,6,4,3,4,3,4,0.25,0.25,0.25,0.25,0.25,0.25,0.25,0.25,Never,Always,Sometimes,Sometimes,Never,Rarely,Often,Sometimes,Rarely,Often,31,14221,distance,distence,distance,distance,distance,1306
LAE02,NO,1,14.2,6,4,3,4,3,4,0.25,0.25,0.25,0.25,0.25,0.25,0.25,0.25,Never,Always,Sometimes,Sometimes,Never,Rarely,Often,Sometimes,Rarely,Often,32,15572,rain,rain,rane,rain,rain,2494
LAE02,NO,1,14.2,6,4,3,4,3,4,0.25,0.25,0.25,0.25,0.25,0.25,0.25,0.25,Never,Always,Sometimes,Sometimes,Never,Rarely,Often,Sometimes,Rarely,Often,33,13719,sleep,sleap,sleep,sleep,sleep,11625
LAE02,NO,1,14.2,6,4,3,4,3,4,0.25,0.25,0.25,0.25,0.25,0.25,0.25,0.25,Never,Always,Sometimes,Sometimes,Never,Rarely,Often,Sometimes,Rarely,Often,34,15732,trousers,trousers,trowsers,trousers,trousers,263
LAE02,NO,1,14.2,6,4,3,4,3,4,0.25,0.25,0.25,0.25,0.25,0.25,0.25,0.25,Never,Always,Sometimes,Sometimes,Never,Rarely,Often,Sometimes,Rarely,Often,35,12864,study,study,studdy,study,study,2501
LAE02,NO,1,14.2,6,4,3,4,3,4,0.25,0.25,0.25,0.25,0.25,0.25,0.25,0.25,Never,Always,Sometimes,Sometimes,Never,Rarely,Often,Sometimes,Rarely,Often,36,17217,nostrels,nostrels,nostrils,nostrils,nostrils,82
LAE02,NO,1,14.2,6,4,3,4,3,4,0.25,0.25,0.25,0.25,0.25,0.25,0.25,0.25,Never,Always,Sometimes,Sometimes,Never,Rarely,Often,Sometimes,Rarely,Often,37,1740,sensitive,sensitive,sensative,sensitive,sensitive,1149
LAE02,NO,1,14.2,6,4,3,4,3,4,0.25,0.25,0.25,0.25,0.25,0.25,0.25,0.25,Never,Always,Sometimes,Sometimes,Never,Rarely,Often,Sometimes,Rarely,Often,38,15801,captain,captain,captin,captain,captain,10622
LAE02,NO,1,14.2,6,4,3,4,3,4,0.25,0.25,0.25,0.25,0.25,0.25,0.25,0.25,Never,Always,Sometimes,Sometimes,Never,Rarely,Often,Sometimes,Rarely,Often,39,21397,hole,hoal,hole,hole,hole,2969
LAE02,NO,1,14.2,6,4,3,4,3,4,0.25,0.25,0.25,0.25,0.25,0.25,0.25,0.25,Never,Always,Sometimes,Sometimes,Never,Rarely,Often,Sometimes,Rarely,Often,40,12529,easy,easy,eazy,easy,easy,13551
LAE02,NO,1,14.2,6,4,3,4,3,4,0.25,0.25,0.25,0.25,0.25,0.25,0.25,0.25,Never,Always,Sometimes,Sometimes,Never,Rarely,Often,Sometimes,Rarely,Often,41,22282,mystery,mysterey,mystery,mystery,mystery,1171
LAE02,NO,1,14.2,6,4,3,4,3,4,0.25,0.25,0.25,0.25,0.25,0.25,0.25,0.25,Never,Always,Sometimes,Sometimes,Never,Rarely,Often,Sometimes,Rarely,Often,42,15794,dream,dreem,dream,dream,dream,6798
LAE02,NO,1,14.2,6,4,3,4,3,4,0.25,0.25,0.25,0.25,0.25,0.25,0.25,0.25,Never,Always,Sometimes,Sometimes,Never,Rarely,Often,Sometimes,Rarely,Often,43,15647,street,streat,street,street,street,7557
LAE02,NO,1,14.2,6,4,3,4,3,4,0.25,0.25,0.25,0.25,0.25,0.25,0.25,0.25,Never,Always,Sometimes,Sometimes,Never,Rarely,Often,Sometimes,Rarely,Often,44,13168,travel,travle,travel,travel,travel,1702
LAE02,NO,1,14.2,6,4,3,4,3,4,0.25,0.25,0.25,0.25,0.25,0.25,0.25,0.25,Never,Always,Sometimes,Sometimes,Never,Rarely,Often,Sometimes,Rarely,Often,45,11642,tape,taip,tape,tape,tape,3511
LAE02,NO,1,14.2,6,4,3,4,3,4,0.25,0.25,0.25,0.25,0.25,0.25,0.25,0.25,Never,Always,Sometimes,Sometimes,Never,Rarely,Often,Sometimes,Rarely,Often,46,16659,toward,toward,toard,toward,toward,1169
LAE02,NO,1,14.2,6,4,3,4,3,4,0.25,0.25,0.25,0.25,0.25,0.25,0.25,0.25,Never,Always,Sometimes,Sometimes,Never,Rarely,Often,Sometimes,Rarely,Often,47,13805,dignaty,dignaty,dignity,dignity,dignity,551
LAE02,NO,1,14.2,6,4,3,4,3,4,0.25,0.25,0.25,0.25,0.25,0.25,0.25,0.25,Never,Always,Sometimes,Sometimes,Never,Rarely,Often,Sometimes,Rarely,Often,48,25238,coat,coat,cote,coat,coat,2146
LAE02,NO,1,14.2,6,4,3,4,3,4,0.25,0.25,0.25,0.25,0.25,0.25,0.25,0.25,Never,Always,Sometimes,Sometimes,Never,Rarely,Often,Sometimes,Rarely,Often,49,23083,fought,fought,faught,fought,fought,1362
LAE02,NO,1,14.2,6,4,3,4,3,4,0.25,0.25,0.25,0.25,0.25,0.25,0.25,0.25,Never,Always,Sometimes,Sometimes,Never,Rarely,Often,Sometimes,Rarely,Often,50,19307,need,need,nead,need,need,66040
LAE02,NO,1,14.2,6,4,3,4,3,4,0.25,0.25,0.25,0.25,0.25,0.25,0.25,0.25,Never,Always,Sometimes,Sometimes,Never,Rarely,Often,Sometimes,Rarely,Often,51,13053,wait,wait,wate,wait,wait,42343
LAE02,NO,1,14.2,6,4,3,4,3,4,0.25,0.25,0.25,0.25,0.25,0.25,0.25,0.25,Never,Always,Sometimes,Sometimes,Never,Rarely,Often,Sometimes,Rarely,Often,52,1834,condence,condence,condense,condense,condense,14
LAE02,NO,1,14.2,6,4,3,4,3,4,0.25,0.25,0.25,0.25,0.25,0.25,0.25,0.25,Never,Always,Sometimes,Sometimes,Never,Rarely,Often,Sometimes,Rarely,Often,53,1371,engine,engine,enjine,engine,engine,1626
LAE02,NO,1,14.2,6,4,3,4,3,4,0.25,0.25,0.25,0.25,0.25,0.25,0.25,0.25,Never,Always,Sometimes,Sometimes,Never,Rarely,Often,Sometimes,Rarely,Often,54,27771,wize,wize,wise,wise,wise,1452
LAE02,NO,1,14.2,6,4,3,4,3,4,0.25,0.25,0.25,0.25,0.25,0.25,0.25,0.25,Never,Always,Sometimes,Sometimes,Never,Rarely,Often,Sometimes,Rarely,Often,55,14528,few,fue,few,few,few,15393
LAE02,NO,1,14.2,6,4,3,4,3,4,0.25,0.25,0.25,0.25,0.25,0.25,0.25,0.25,Never,Always,Sometimes,Sometimes,Never,Rarely,Often,Sometimes,Rarely,Often,56,13004,liberty,liberty,libberty,liberty,liberty,849
LAE02,NO,1,14.2,6,4,3,4,3,4,0.25,0.25,0.25,0.25,0.25,0.25,0.25,0.25,Never,Always,Sometimes,Sometimes,Never,Rarely,Often,Sometimes,Rarely,Often,57,9799,ghost,ghost,goast,ghost,ghost,1866
LAE02,NO,1,14.2,6,4,3,4,3,4,0.25,0.25,0.25,0.25,0.25,0.25,0.25,0.25,Never,Always,Sometimes,Sometimes,Never,Rarely,Often,Sometimes,Rarely,Often,58,17959,backwords,backwords,backwards,backwards,backwards,667
LAE02,NO,1,14.2,6,4,3,4,3,4,0.25,0.25,0.25,0.25,0.25,0.25,0.25,0.25,Never,Always,Sometimes,Sometimes,Never,Rarely,Often,Sometimes,Rarely,Often,59,18435,take,take,taik,take,take,96443
LAE02,NO,1,14.2,6,4,3,4,3,4,0.25,0.25,0.25,0.25,0.25,0.25,0.25,0.25,Never,Always,Sometimes,Sometimes,Never,Rarely,Often,Sometimes,Rarely,Often,60,13157,vero,vero,trew,vero,vero,NA
LAE02,NO,1,14.2,6,4,3,4,3,4,0.25,0.25,0.25,0.25,0.25,0.25,0.25,0.25,Never,Always,Sometimes,Sometimes,Never,Rarely,Often,Sometimes,Rarely,Often,61,1109,face,face,fase,face,face,14747
LAE02,NO,1,14.2,6,4,3,4,3,4,0.25,0.25,0.25,0.25,0.25,0.25,0.25,0.25,Never,Always,Sometimes,Sometimes,Never,Rarely,Often,Sometimes,Rarely,Often,62,25009,culpert,culpert,culprit,culprit,culprit,55
LAE02,NO,1,14.2,6,4,3,4,3,4,0.25,0.25,0.25,0.25,0.25,0.25,0.25,0.25,Never,Always,Sometimes,Sometimes,Never,Rarely,Often,Sometimes,Rarely,Often,63,2893,wagun,wagon,wagun,wagon,wagon,906
LAE02,NO,1,14.2,6,4,3,4,3,4,0.25,0.25,0.25,0.25,0.25,0.25,0.25,0.25,Never,Always,Sometimes,Sometimes,Never,Rarely,Often,Sometimes,Rarely,Often,64,16048,explain,explane,explain,explain,explain,5670
LAE02,NO,1,14.2,6,4,3,4,3,4,0.25,0.25,0.25,0.25,0.25,0.25,0.25,0.25,Never,Always,Sometimes,Sometimes,Never,Rarely,Often,Sometimes,Rarely,Often,65,15641,learn,lurn,learn,learn,learn,6047
LAE02,NO,1,14.2,6,4,3,4,3,4,0.25,0.25,0.25,0.25,0.25,0.25,0.25,0.25,Never,Always,Sometimes,Sometimes,Never,Rarely,Often,Sometimes,Rarely,Often,66,13142,grown,grone,grown,grown,grown,1275
LAE02,NO,1,14.2,6,4,3,4,3,4,0.25,0.25,0.25,0.25,0.25,0.25,0.25,0.25,Never,Always,Sometimes,Sometimes,Never,Rarely,Often,Sometimes,Rarely,Often,67,18847,goat,gote,goat,goat,goat,537
LAE02,NO,1,14.2,6,4,3,4,3,4,0.25,0.25,0.25,0.25,0.25,0.25,0.25,0.25,Never,Always,Sometimes,Sometimes,Never,Rarely,Often,Sometimes,Rarely,Often,68,18894,smoke,smoke,smoak,smoke,smoke,3337
LAE02,NO,1,14.2,6,4,3,4,3,4,0.25,0.25,0.25,0.25,0.25,0.25,0.25,0.25,Never,Always,Sometimes,Sometimes,Never,Rarely,Often,Sometimes,Rarely,Often,69,22846,wreath,wreath,reath,wreath,wreath,54
LAE02,NO,1,14.2,6,4,3,4,3,4,0.25,0.25,0.25,0.25,0.25,0.25,0.25,0.25,Never,Always,Sometimes,Sometimes,Never,Rarely,Often,Sometimes,Rarely,Often,70,14131,word,wurd,word,word,word,12013
LAE02,NO,1,14.2,6,4,3,4,3,4,0.25,0.25,0.25,0.25,0.25,0.25,0.25,0.25,Never,Always,Sometimes,Sometimes,Never,Rarely,Often,Sometimes,Rarely,Often,71,12919,skate,skait,skate,skate,skate,301
LAE02,NO,1,14.2,6,4,3,4,3,4,0.25,0.25,0.25,0.25,0.25,0.25,0.25,0.25,Never,Always,Sometimes,Sometimes,Never,Rarely,Often,Sometimes,Rarely,Often,72,11474,keep,keep,keap,keep,keep,35846
LAE02,NO,1,14.2,6,4,3,4,3,4,0.25,0.25,0.25,0.25,0.25,0.25,0.25,0.25,Never,Always,Sometimes,Sometimes,Never,Rarely,Often,Sometimes,Rarely,Often,73,21314,stream,streem,stream,stream,stream,410
LAE02,NO,1,14.2,6,4,3,4,3,4,0.25,0.25,0.25,0.25,0.25,0.25,0.25,0.25,Never,Always,Sometimes,Sometimes,Never,Rarely,Often,Sometimes,Rarely,Often,74,11543,answer,anser,answer,answer,answer,8986
LAE02,NO,1,14.2,6,4,3,4,3,4,0.25,0.25,0.25,0.25,0.25,0.25,0.25,0.25,Never,Always,Sometimes,Sometimes,Never,Rarely,Often,Sometimes,Rarely,Often,75,11802,salmon,sammon,salmon,salmon,salmon,334
LAE02,NO,1,14.2,6,4,3,4,3,4,0.25,0.25,0.25,0.25,0.25,0.25,0.25,0.25,Never,Always,Sometimes,Sometimes,Never,Rarely,Often,Sometimes,Rarely,Often,76,1700,store,store,stoar,store,store,4178
LAE02,NO,1,14.2,6,4,3,4,3,4,0.25,0.25,0.25,0.25,0.25,0.25,0.25,0.25,Never,Always,Sometimes,Sometimes,Never,Rarely,Often,Sometimes,Rarely,Often,77,11305,choose,choose,chooze,choose,choose,2451
LAE02,NO,1,14.2,6,4,3,4,3,4,0.25,0.25,0.25,0.25,0.25,0.25,0.25,0.25,Never,Always,Sometimes,Sometimes,Never,Rarely,Often,Sometimes,Rarely,Often,78,1292,muscle,mussle,muscle,muscle,muscle,694
LAE02,NO,1,14.2,6,4,3,4,3,4,0.25,0.25,0.25,0.25,0.25,0.25,0.25,0.25,Never,Always,Sometimes,Sometimes,Never,Rarely,Often,Sometimes,Rarely,Often,79,10282,alternative,alternitive,alternative,alternative,alternative,476
LAE02,NO,1,14.2,6,4,3,4,3,4,0.25,0.25,0.25,0.25,0.25,0.25,0.25,0.25,Never,Always,Sometimes,Sometimes,Never,Rarely,Often,Sometimes,Rarely,Often,80,37424,pavement,pavement,pavemant,pavement,pavement,103
LAE03,NO,1,14.6,5,4,4,3,5,4,0,0,0.25,0,0.75,0.75,0.5,0.5,Never,Sometimes,Rarely,Often,Never,Never,Sometimes,Sometimes,Never,Rarely,1,18264,few,fue,few,few,few,15393
LAE03,NO,1,14.6,5,4,4,3,5,4,0,0,0.25,0,0.75,0.75,0.5,0.5,Never,Sometimes,Rarely,Often,Never,Never,Sometimes,Sometimes,Never,Rarely,2,11952,study,study,studdy,study,study,2501
LAE03,NO,1,14.6,5,4,4,3,5,4,0,0,0.25,0,0.75,0.75,0.5,0.5,Never,Sometimes,Rarely,Often,Never,Never,Sometimes,Sometimes,Never,Rarely,3,18078,sevral,several,sevral,several,several,1978
LAE03,NO,1,14.6,5,4,4,3,5,4,0,0,0.25,0,0.75,0.75,0.5,0.5,Never,Sometimes,Rarely,Often,Never,Never,Sometimes,Sometimes,Never,Rarely,4,16172,ghost,ghost,goast,ghost,ghost,1866
LAE03,NO,1,14.6,5,4,4,3,5,4,0,0,0.25,0,0.75,0.75,0.5,0.5,Never,Sometimes,Rarely,Often,Never,Never,Sometimes,Sometimes,Never,Rarely,5,13559,believe,believe,beleave,believe,believe,31882
LAE03,NO,1,14.6,5,4,4,3,5,4,0,0,0.25,0,0.75,0.75,0.5,0.5,Never,Sometimes,Rarely,Often,Never,Never,Sometimes,Sometimes,Never,Rarely,6,20363,toward,toward,toard,toward,toward,1169
LAE03,NO,1,14.6,5,4,4,3,5,4,0,0,0.25,0,0.75,0.75,0.5,0.5,Never,Sometimes,Rarely,Often,Never,Never,Sometimes,Sometimes,Never,Rarely,7,13002,choose,choose,chooze,choose,choose,2451
LAE03,NO,1,14.6,5,4,4,3,5,4,0,0,0.25,0,0.75,0.75,0.5,0.5,Never,Sometimes,Rarely,Often,Never,Never,Sometimes,Sometimes,Never,Rarely,8,1732,word,wurd,word,word,word,12013
LAE03,NO,1,14.6,5,4,4,3,5,4,0,0,0.25,0,0.75,0.75,0.5,0.5,Never,Sometimes,Rarely,Often,Never,Never,Sometimes,Sometimes,Never,Rarely,9,12125,need,need,nead,need,need,66040
LAE03,NO,1,14.6,5,4,4,3,5,4,0,0,0.25,0,0.75,0.75,0.5,0.5,Never,Sometimes,Rarely,Often,Never,Never,Sometimes,Sometimes,Never,Rarely,10,15166,basement,baisment,basement,basement,basement,1074
LAE03,NO,1,14.6,5,4,4,3,5,4,0,0,0.25,0,0.75,0.75,0.5,0.5,Never,Sometimes,Rarely,Often,Never,Never,Sometimes,Sometimes,Never,Rarely,11,13453,hurt,hert,hurt,hurt,hurt,12564
LAE03,NO,1,14.6,5,4,4,3,5,4,0,0,0.25,0,0.75,0.75,0.5,0.5,Never,Sometimes,Rarely,Often,Never,Never,Sometimes,Sometimes,Never,Rarely,12,14927,please,pleese,please,please,please,56149
LAE03,NO,1,14.6,5,4,4,3,5,4,0,0,0.25,0,0.75,0.75,0.5,0.5,Never,Sometimes,Rarely,Often,Never,Never,Sometimes,Sometimes,Never,Rarely,13,13173,rain,rain,rane,rain,rain,2494
LAE03,NO,1,14.6,5,4,4,3,5,4,0,0,0.25,0,0.75,0.75,0.5,0.5,Never,Sometimes,Rarely,Often,Never,Never,Sometimes,Sometimes,Never,Rarely,14,1181,vero,vero,trew,vero,vero,NA
LAE03,NO,1,14.6,5,4,4,3,5,4,0,0,0.25,0,0.75,0.75,0.5,0.5,Never,Sometimes,Rarely,Often,Never,Never,Sometimes,Sometimes,Never,Rarely,15,11236,salad,salad,sallad,salad,salad,868
LAE03,NO,1,14.6,5,4,4,3,5,4,0,0,0.25,0,0.75,0.75,0.5,0.5,Never,Sometimes,Rarely,Often,Never,Never,Sometimes,Sometimes,Never,Rarely,16,13324,trousers,trousers,trowsers,trousers,trousers,263
LAE03,NO,1,14.6,5,4,4,3,5,4,0,0,0.25,0,0.75,0.75,0.5,0.5,Never,Sometimes,Rarely,Often,Never,Never,Sometimes,Sometimes,Never,Rarely,17,29992,pavement,pavement,pavemant,pavement,pavement,103
LAE03,NO,1,14.6,5,4,4,3,5,4,0,0,0.25,0,0.75,0.75,0.5,0.5,Never,Sometimes,Rarely,Often,Never,Never,Sometimes,Sometimes,Never,Rarely,18,11738,wait,wait,wate,wait,wait,42343
LAE03,NO,1,14.6,5,4,4,3,5,4,0,0,0.25,0,0.75,0.75,0.5,0.5,Never,Sometimes,Rarely,Often,Never,Never,Sometimes,Sometimes,Never,Rarely,19,23833,fought,fought,faught,fought,fought,1362
LAE03,NO,1,14.6,5,4,4,3,5,4,0,0,0.25,0,0.75,0.75,0.5,0.5,Never,Sometimes,Rarely,Often,Never,Never,Sometimes,Sometimes,Never,Rarely,20,21415,answer,anser,answer,answer,answer,8986
LAE03,NO,1,14.6,5,4,4,3,5,4,0,0,0.25,0,0.75,0.75,0.5,0.5,Never,Sometimes,Rarely,Often,Never,Never,Sometimes,Sometimes,Never,Rarely,21,19935,nuisance,nusance,nuisance,nuisance,nuisance,164
LAE03,NO,1,14.6,5,4,4,3,5,4,0,0,0.25,0,0.75,0.75,0.5,0.5,Never,Sometimes,Rarely,Often,Never,Never,Sometimes,Sometimes,Never,Rarely,22,16485,salmon,sammon,salmon,salmon,salmon,334
LAE03,NO,1,14.6,5,4,4,3,5,4,0,0,0.25,0,0.75,0.75,0.5,0.5,Never,Sometimes,Rarely,Often,Never,Never,Sometimes,Sometimes,Never,Rarely,23,19171,stream,streem,stream,stream,stream,410
LAE03,NO,1,14.6,5,4,4,3,5,4,0,0,0.25,0,0.75,0.75,0.5,0.5,Never,Sometimes,Rarely,Often,Never,Never,Sometimes,Sometimes,Never,Rarely,24,13145,liberty,liberty,libberty,liberty,liberty,849
LAE03,NO,1,14.6,5,4,4,3,5,4,0,0,0.25,0,0.75,0.75,0.5,0.5,Never,Sometimes,Rarely,Often,Never,Never,Sometimes,Sometimes,Never,Rarely,25,14411,grown,grone,grown,grown,grown,1275
LAE03,NO,1,14.6,5,4,4,3,5,4,0,0,0.25,0,0.75,0.75,0.5,0.5,Never,Sometimes,Rarely,Often,Never,Never,Sometimes,Sometimes,Never,Rarely,26,8685,sleep,sleap,sleep,sleep,sleep,11625
LAE03,NO,1,14.6,5,4,4,3,5,4,0,0,0.25,0,0.75,0.75,0.5,0.5,Never,Sometimes,Rarely,Often,Never,Never,Sometimes,Sometimes,Never,Rarely,27,2420,wheat,wheet,wheat,wheat,wheat,293
LAE03,NO,1,14.6,5,4,4,3,5,4,0,0,0.25,0,0.75,0.75,0.5,0.5,Never,Sometimes,Rarely,Often,Never,Never,Sometimes,Sometimes,Never,Rarely,28,1385,hearth,harth,hearth,hearth,hearth,34
LAE03,NO,1,14.6,5,4,4,3,5,4,0,0,0.25,0,0.75,0.75,0.5,0.5,Never,Sometimes,Rarely,Often,Never,Never,Sometimes,Sometimes,Never,Rarely,29,13636,dignity,dignaty,dignity,dignity,dignity,551
LAE03,NO,1,14.6,5,4,4,3,5,4,0,0,0.25,0,0.75,0.75,0.5,0.5,Never,Sometimes,Rarely,Often,Never,Never,Sometimes,Sometimes,Never,Rarely,30,20768,applause,applause,aplause,applause,applause,576
LAE03,NO,1,14.6,5,4,4,3,5,4,0,0,0.25,0,0.75,0.75,0.5,0.5,Never,Sometimes,Rarely,Often,Never,Never,Sometimes,Sometimes,Never,Rarely,31,11004,smoke,smoke,smoak,smoke,smoke,3337
LAE03,NO,1,14.6,5,4,4,3,5,4,0,0,0.25,0,0.75,0.75,0.5,0.5,Never,Sometimes,Rarely,Often,Never,Never,Sometimes,Sometimes,Never,Rarely,32,19777,wreath,wreath,reath,wreath,wreath,54
LAE03,NO,1,14.6,5,4,4,3,5,4,0,0,0.25,0,0.75,0.75,0.5,0.5,Never,Sometimes,Rarely,Often,Never,Never,Sometimes,Sometimes,Never,Rarely,33,37492,wise,wize,wise,wise,wise,1452
LAE03,NO,1,14.6,5,4,4,3,5,4,0,0,0.25,0,0.75,0.75,0.5,0.5,Never,Sometimes,Rarely,Often,Never,Never,Sometimes,Sometimes,Never,Rarely,34,1314,hole,hoal,hole,hole,hole,2969
LAE03,NO,1,14.6,5,4,4,3,5,4,0,0,0.25,0,0.75,0.75,0.5,0.5,Never,Sometimes,Rarely,Often,Never,Never,Sometimes,Sometimes,Never,Rarely,35,14973,roar,roar,rore,roar,roar,205
LAE03,NO,1,14.6,5,4,4,3,5,4,0,0,0.25,0,0.75,0.75,0.5,0.5,Never,Sometimes,Rarely,Often,Never,Never,Sometimes,Sometimes,Never,Rarely,36,18425,assure,assure,ashure,assure,assure,1021
LAE03,NO,1,14.6,5,4,4,3,5,4,0,0,0.25,0,0.75,0.75,0.5,0.5,Never,Sometimes,Rarely,Often,Never,Never,Sometimes,Sometimes,Never,Rarely,37,11722,lake,lake,laik,lake,lake,1836
LAE03,NO,1,14.6,5,4,4,3,5,4,0,0,0.25,0,0.75,0.75,0.5,0.5,Never,Sometimes,Rarely,Often,Never,Never,Sometimes,Sometimes,Never,Rarely,38,21414,sudden,sudden,suddin,sudden,sudden,1707
LAE03,NO,1,14.6,5,4,4,3,5,4,0,0,0.25,0,0.75,0.75,0.5,0.5,Never,Sometimes,Rarely,Often,Never,Never,Sometimes,Sometimes,Never,Rarely,39,13952,every,evry,every,every,every,28007
LAE03,NO,1,14.6,5,4,4,3,5,4,0,0,0.25,0,0.75,0.75,0.5,0.5,Never,Sometimes,Rarely,Often,Never,Never,Sometimes,Sometimes,Never,Rarely,40,30448,alternative,alternitive,alternative,alternative,alternative,476
LAE03,NO,1,14.6,5,4,4,3,5,4,0,0,0.25,0,0.75,0.75,0.5,0.5,Never,Sometimes,Rarely,Often,Never,Never,Sometimes,Sometimes,Never,Rarely,41,16526,nice,nice,nise,nice,nice,33125
LAE03,NO,1,14.6,5,4,4,3,5,4,0,0,0.25,0,0.75,0.75,0.5,0.5,Never,Sometimes,Rarely,Often,Never,Never,Sometimes,Sometimes,Never,Rarely,42,18515,compliment,compliment,complimant,compliment,compliment,523
LAE03,NO,1,14.6,5,4,4,3,5,4,0,0,0.25,0,0.75,0.75,0.5,0.5,Never,Sometimes,Rarely,Often,Never,Never,Sometimes,Sometimes,Never,Rarely,43,16676,distance,distence,distance,distance,distance,1306
LAE03,NO,1,14.6,5,4,4,3,5,4,0,0,0.25,0,0.75,0.75,0.5,0.5,Never,Sometimes,Rarely,Often,Never,Never,Sometimes,Sometimes,Never,Rarely,44,20586,interesting,interesting,intresting,interesting,interesting,4421
LAE03,NO,1,14.6,5,4,4,3,5,4,0,0,0.25,0,0.75,0.75,0.5,0.5,Never,Sometimes,Rarely,Often,Never,Never,Sometimes,Sometimes,Never,Rarely,45,12126,learn,lurn,learn,learn,learn,6047
LAE03,NO,1,14.6,5,4,4,3,5,4,0,0,0.25,0,0.75,0.75,0.5,0.5,Never,Sometimes,Rarely,Often,Never,Never,Sometimes,Sometimes,Never,Rarely,46,13401,example,exsample,example,example,example,1527
LAE03,NO,1,14.6,5,4,4,3,5,4,0,0,0.25,0,0.75,0.75,0.5,0.5,Never,Sometimes,Rarely,Often,Never,Never,Sometimes,Sometimes,Never,Rarely,47,11583,easy,easy,eazy,easy,easy,13551
LAE03,NO,1,14.6,5,4,4,3,5,4,0,0,0.25,0,0.75,0.75,0.5,0.5,Never,Sometimes,Rarely,Often,Never,Never,Sometimes,Sometimes,Never,Rarely,48,11282,sheep,sheep,sheap,sheep,sheep,685
LAE03,NO,1,14.6,5,4,4,3,5,4,0,0,0.25,0,0.75,0.75,0.5,0.5,Never,Sometimes,Rarely,Often,Never,Never,Sometimes,Sometimes,Never,Rarely,49,28628,thum,thum,thumb,thumb,thumb,603
LAE03,NO,1,14.6,5,4,4,3,5,4,0,0,0.25,0,0.75,0.75,0.5,0.5,Never,Sometimes,Rarely,Often,Never,Never,Sometimes,Sometimes,Never,Rarely,50,23089,dream,dreem,dream,dream,dream,6798
LAE03,NO,1,14.6,5,4,4,3,5,4,0,0,0.25,0,0.75,0.75,0.5,0.5,Never,Sometimes,Rarely,Often,Never,Never,Sometimes,Sometimes,Never,Rarely,51,19642,muscle,mussle,muscle,muscle,muscle,694
LAE03,NO,1,14.6,5,4,4,3,5,4,0,0,0.25,0,0.75,0.75,0.5,0.5,Never,Sometimes,Rarely,Often,Never,Never,Sometimes,Sometimes,Never,Rarely,52,22355,condence,condence,condense,condense,condense,14
LAE03,NO,1,14.6,5,4,4,3,5,4,0,0,0.25,0,0.75,0.75,0.5,0.5,Never,Sometimes,Rarely,Often,Never,Never,Sometimes,Sometimes,Never,Rarely,53,45797,senators,senaters,senators,senators,senators,120
LAE03,NO,1,14.6,5,4,4,3,5,4,0,0,0.25,0,0.75,0.75,0.5,0.5,Never,Sometimes,Rarely,Often,Never,Never,Sometimes,Sometimes,Never,Rarely,54,15843,important,importent,important,important,important,10587
LAE03,NO,1,14.6,5,4,4,3,5,4,0,0,0.25,0,0.75,0.75,0.5,0.5,Never,Sometimes,Rarely,Often,Never,Never,Sometimes,Sometimes,Never,Rarely,55,12137,street,streat,street,street,street,7557
LAE03,NO,1,14.6,5,4,4,3,5,4,0,0,0.25,0,0.75,0.75,0.5,0.5,Never,Sometimes,Rarely,Often,Never,Never,Sometimes,Sometimes,Never,Rarely,56,30823,captain,captain,captin,captain,captain,10622
LAE03,NO,1,14.6,5,4,4,3,5,4,0,0,0.25,0,0.75,0.75,0.5,0.5,Never,Sometimes,Rarely,Often,Never,Never,Sometimes,Sometimes,Never,Rarely,57,16509,purched,perched,purched,perched,perched,30
LAE03,NO,1,14.6,5,4,4,3,5,4,0,0,0.25,0,0.75,0.75,0.5,0.5,Never,Sometimes,Rarely,Often,Never,Never,Sometimes,Sometimes,Never,Rarely,58,13663,keep,keep,keap,keep,keep,35846
LAE03,NO,1,14.6,5,4,4,3,5,4,0,0,0.25,0,0.75,0.75,0.5,0.5,Never,Sometimes,Rarely,Often,Never,Never,Sometimes,Sometimes,Never,Rarely,59,9527,store,store,stoar,store,store,4178
LAE03,NO,1,14.6,5,4,4,3,5,4,0,0,0.25,0,0.75,0.75,0.5,0.5,Never,Sometimes,Rarely,Often,Never,Never,Sometimes,Sometimes,Never,Rarely,60,12847,face,face,fase,face,face,14747
LAE03,NO,1,14.6,5,4,4,3,5,4,0,0,0.25,0,0.75,0.75,0.5,0.5,Never,Sometimes,Rarely,Often,Never,Never,Sometimes,Sometimes,Never,Rarely,61,14124,tape,taip,tape,tape,tape,3511
LAE03,NO,1,14.6,5,4,4,3,5,4,0,0,0.25,0,0.75,0.75,0.5,0.5,Never,Sometimes,Rarely,Often,Never,Never,Sometimes,Sometimes,Never,Rarely,62,26841,mystery,mysterey,mystery,mystery,mystery,1171
LAE03,NO,1,14.6,5,4,4,3,5,4,0,0,0.25,0,0.75,0.75,0.5,0.5,Never,Sometimes,Rarely,Often,Never,Never,Sometimes,Sometimes,Never,Rarely,63,36591,nostrels,nostrels,nostrils,nostrils,nostrils,82
LAE03,NO,1,14.6,5,4,4,3,5,4,0,0,0.25,0,0.75,0.75,0.5,0.5,Never,Sometimes,Rarely,Often,Never,Never,Sometimes,Sometimes,Never,Rarely,64,13448,engine,engine,enjine,engine,engine,1626
LAE03,NO,1,14.6,5,4,4,3,5,4,0,0,0.25,0,0.75,0.75,0.5,0.5,Never,Sometimes,Rarely,Often,Never,Never,Sometimes,Sometimes,Never,Rarely,65,13164,between,between,betwean,between,between,8932
LAE03,NO,1,14.6,5,4,4,3,5,4,0,0,0.25,0,0.75,0.75,0.5,0.5,Never,Sometimes,Rarely,Often,Never,Never,Sometimes,Sometimes,Never,Rarely,66,20679,culpert,culpert,culprit,culprit,culprit,55
LAE03,NO,1,14.6,5,4,4,3,5,4,0,0,0.25,0,0.75,0.75,0.5,0.5,Never,Sometimes,Rarely,Often,Never,Never,Sometimes,Sometimes,Never,Rarely,67,13168,deep,deap,deep,deep,deep,3896
LAE03,NO,1,14.6,5,4,4,3,5,4,0,0,0.25,0,0.75,0.75,0.5,0.5,Never,Sometimes,Rarely,Often,Never,Never,Sometimes,Sometimes,Never,Rarely,68,10838,goat,gote,goat,goat,goat,537
LAE03,NO,1,14.6,5,4,4,3,5,4,0,0,0.25,0,0.75,0.75,0.5,0.5,Never,Sometimes,Rarely,Often,Never,Never,Sometimes,Sometimes,Never,Rarely,69,11932,travel,travle,travel,travel,travel,1702
LAE03,NO,1,14.6,5,4,4,3,5,4,0,0,0.25,0,0.75,0.75,0.5,0.5,Never,Sometimes,Rarely,Often,Never,Never,Sometimes,Sometimes,Never,Rarely,70,1223,explain,explane,explain,explain,explain,5670
LAE03,NO,1,14.6,5,4,4,3,5,4,0,0,0.25,0,0.75,0.75,0.5,0.5,Never,Sometimes,Rarely,Often,Never,Never,Sometimes,Sometimes,Never,Rarely,71,12447,resource,resource,resourse,resource,resource,83
LAE03,NO,1,14.6,5,4,4,3,5,4,0,0,0.25,0,0.75,0.75,0.5,0.5,Never,Sometimes,Rarely,Often,Never,Never,Sometimes,Sometimes,Never,Rarely,72,19701,backwords,backwords,backwards,backwards,backwards,667
LAE03,NO,1,14.6,5,4,4,3,5,4,0,0,0.25,0,0.75,0.75,0.5,0.5,Never,Sometimes,Rarely,Often,Never,Never,Sometimes,Sometimes,Never,Rarely,73,17085,scare,scare,scair,scare,scare,1712
LAE03,NO,1,14.6,5,4,4,3,5,4,0,0,0.25,0,0.75,0.75,0.5,0.5,Never,Sometimes,Rarely,Often,Never,Never,Sometimes,Sometimes,Never,Rarely,74,13237,heavy,hevvy,heavy,heavy,heavy,2412
LAE03,NO,1,14.6,5,4,4,3,5,4,0,0,0.25,0,0.75,0.75,0.5,0.5,Never,Sometimes,Rarely,Often,Never,Never,Sometimes,Sometimes,Never,Rarely,75,11638,skate,skait,skate,skate,skate,301
LAE03,NO,1,14.6,5,4,4,3,5,4,0,0,0.25,0,0.75,0.75,0.5,0.5,Never,Sometimes,Rarely,Often,Never,Never,Sometimes,Sometimes,Never,Rarely,76,12115,coat,coat,cote,coat,coat,2146
LAE03,NO,1,14.6,5,4,4,3,5,4,0,0,0.25,0,0.75,0.75,0.5,0.5,Never,Sometimes,Rarely,Often,Never,Never,Sometimes,Sometimes,Never,Rarely,77,13163,sensitive,sensitive,sensative,sensitive,sensitive,1149
LAE03,NO,1,14.6,5,4,4,3,5,4,0,0,0.25,0,0.75,0.75,0.5,0.5,Never,Sometimes,Rarely,Often,Never,Never,Sometimes,Sometimes,Never,Rarely,78,37005,wagon,wagon,wagun,wagon,wagon,906
LAE03,NO,1,14.6,5,4,4,3,5,4,0,0,0.25,0,0.75,0.75,0.5,0.5,Never,Sometimes,Rarely,Often,Never,Never,Sometimes,Sometimes,Never,Rarely,79,20298,demon,demon,deamon,demon,demon,1593
LAE03,NO,1,14.6,5,4,4,3,5,4,0,0,0.25,0,0.75,0.75,0.5,0.5,Never,Sometimes,Rarely,Often,Never,Never,Sometimes,Sometimes,Never,Rarely,80,1212,take,take,taik,take,take,96443
LAE04,YES,4,18.7,4,4,3,5,5,4,0.25,0.25,0.75,0.25,0.25,0.25,0.25,0.5,Never,Never,Sometimes,Rarely,Often,Rarely,Always,Sometimes,Always,Never,1,15077,compliment,compliment,complimant,compliment,compliment,523
LAE04,YES,4,18.7,4,4,3,5,5,4,0.25,0.25,0.75,0.25,0.25,0.25,0.25,0.5,Never,Never,Sometimes,Rarely,Often,Rarely,Always,Sometimes,Always,Never,2,14753,perched,perched,purched,perched,perched,30
LAE04,YES,4,18.7,4,4,3,5,5,4,0.25,0.25,0.75,0.25,0.25,0.25,0.25,0.5,Never,Never,Sometimes,Rarely,Often,Rarely,Always,Sometimes,Always,Never,3,12894,believe,believe,beleave,believe,believe,31882
LAE04,YES,4,18.7,4,4,3,5,5,4,0.25,0.25,0.75,0.25,0.25,0.25,0.25,0.5,Never,Never,Sometimes,Rarely,Often,Rarely,Always,Sometimes,Always,Never,4,12277,salad,salad,sallad,salad,salad,868
LAE04,YES,4,18.7,4,4,3,5,5,4,0.25,0.25,0.75,0.25,0.25,0.25,0.25,0.5,Never,Never,Sometimes,Rarely,Often,Rarely,Always,Sometimes,Always,Never,5,11075,roar,roar,rore,roar,roar,205
LAE04,YES,4,18.7,4,4,3,5,5,4,0.25,0.25,0.75,0.25,0.25,0.25,0.25,0.5,Never,Never,Sometimes,Rarely,Often,Rarely,Always,Sometimes,Always,Never,6,11181,word,wurd,word,word,word,12013
LAE04,YES,4,18.7,4,4,3,5,5,4,0.25,0.25,0.75,0.25,0.25,0.25,0.25,0.5,Never,Never,Sometimes,Rarely,Often,Rarely,Always,Sometimes,Always,Never,7,11696,study,study,studdy,study,study,2501
LAE04,YES,4,18.7,4,4,3,5,5,4,0.25,0.25,0.75,0.25,0.25,0.25,0.25,0.5,Never,Never,Sometimes,Rarely,Often,Rarely,Always,Sometimes,Always,Never,8,11969,pavement,pavement,pavemant,pavement,pavement,103
LAE04,YES,4,18.7,4,4,3,5,5,4,0.25,0.25,0.75,0.25,0.25,0.25,0.25,0.5,Never,Never,Sometimes,Rarely,Often,Rarely,Always,Sometimes,Always,Never,9,11447,wagon,wagon,wagun,wagon,wagon,906
LAE04,YES,4,18.7,4,4,3,5,5,4,0.25,0.25,0.75,0.25,0.25,0.25,0.25,0.5,Never,Never,Sometimes,Rarely,Often,Rarely,Always,Sometimes,Always,Never,10,11941,important,importent,important,important,important,10587
LAE04,YES,4,18.7,4,4,3,5,5,4,0.25,0.25,0.75,0.25,0.25,0.25,0.25,0.5,Never,Never,Sometimes,Rarely,Often,Rarely,Always,Sometimes,Always,Never,11,20651,liberty,liberty,libberty,liberty,liberty,849
LAE04,YES,4,18.7,4,4,3,5,5,4,0.25,0.25,0.75,0.25,0.25,0.25,0.25,0.5,Never,Never,Sometimes,Rarely,Often,Rarely,Always,Sometimes,Always,Never,12,13079,several,several,sevral,several,several,1978
LAE04,YES,4,18.7,4,4,3,5,5,4,0.25,0.25,0.75,0.25,0.25,0.25,0.25,0.5,Never,Never,Sometimes,Rarely,Often,Rarely,Always,Sometimes,Always,Never,13,10592,face,face,fase,face,face,14747
LAE04,YES,4,18.7,4,4,3,5,5,4,0.25,0.25,0.75,0.25,0.25,0.25,0.25,0.5,Never,Never,Sometimes,Rarely,Often,Rarely,Always,Sometimes,Always,Never,14,15289,few,fue,few,few,few,15393
LAE04,YES,4,18.7,4,4,3,5,5,4,0.25,0.25,0.75,0.25,0.25,0.25,0.25,0.5,Never,Never,Sometimes,Rarely,Often,Rarely,Always,Sometimes,Always,Never,15,19409,resource,resource,resourse,resource,resource,83
LAE04,YES,4,18.7,4,4,3,5,5,4,0.25,0.25,0.75,0.25,0.25,0.25,0.25,0.5,Never,Never,Sometimes,Rarely,Often,Rarely,Always,Sometimes,Always,Never,16,13486,distance,distence,distance,distance,distance,1306
LAE04,YES,4,18.7,4,4,3,5,5,4,0.25,0.25,0.75,0.25,0.25,0.25,0.25,0.5,Never,Never,Sometimes,Rarely,Often,Rarely,Always,Sometimes,Always,Never,17,15598,alternative,alternitive,alternative,alternative,alternative,476
LAE04,YES,4,18.7,4,4,3,5,5,4,0.25,0.25,0.75,0.25,0.25,0.25,0.25,0.5,Never,Never,Sometimes,Rarely,Often,Rarely,Always,Sometimes,Always,Never,18,16835,every,evry,every,every,every,28007
LAE04,YES,4,18.7,4,4,3,5,5,4,0.25,0.25,0.75,0.25,0.25,0.25,0.25,0.5,Never,Never,Sometimes,Rarely,Often,Rarely,Always,Sometimes,Always,Never,19,11568,thumb,thum,thumb,thumb,thumb,603
LAE04,YES,4,18.7,4,4,3,5,5,4,0.25,0.25,0.75,0.25,0.25,0.25,0.25,0.5,Never,Never,Sometimes,Rarely,Often,Rarely,Always,Sometimes,Always,Never,20,10581,smoke,smoke,smoak,smoke,smoke,3337
LAE04,YES,4,18.7,4,4,3,5,5,4,0.25,0.25,0.75,0.25,0.25,0.25,0.25,0.5,Never,Never,Sometimes,Rarely,Often,Rarely,Always,Sometimes,Always,Never,21,12023,keep,keep,keap,keep,keep,35846
LAE04,YES,4,18.7,4,4,3,5,5,4,0.25,0.25,0.75,0.25,0.25,0.25,0.25,0.5,Never,Never,Sometimes,Rarely,Often,Rarely,Always,Sometimes,Always,Never,22,10604,hurt,hert,hurt,hurt,hurt,12564
LAE04,YES,4,18.7,4,4,3,5,5,4,0.25,0.25,0.75,0.25,0.25,0.25,0.25,0.5,Never,Never,Sometimes,Rarely,Often,Rarely,Always,Sometimes,Always,Never,23,11811,basement,baisment,basement,basement,basement,1074
LAE04,YES,4,18.7,4,4,3,5,5,4,0.25,0.25,0.75,0.25,0.25,0.25,0.25,0.5,Never,Never,Sometimes,Rarely,Often,Rarely,Always,Sometimes,Always,Never,24,10505,tape,taip,tape,tape,tape,3511
LAE04,YES,4,18.7,4,4,3,5,5,4,0.25,0.25,0.75,0.25,0.25,0.25,0.25,0.5,Never,Never,Sometimes,Rarely,Often,Rarely,Always,Sometimes,Always,Never,25,11385,deep,deap,deep,deep,deep,3896
LAE04,YES,4,18.7,4,4,3,5,5,4,0.25,0.25,0.75,0.25,0.25,0.25,0.25,0.5,Never,Never,Sometimes,Rarely,Often,Rarely,Always,Sometimes,Always,Never,26,11372,learn,lurn,learn,learn,learn,6047
LAE04,YES,4,18.7,4,4,3,5,5,4,0.25,0.25,0.75,0.25,0.25,0.25,0.25,0.5,Never,Never,Sometimes,Rarely,Often,Rarely,Always,Sometimes,Always,Never,27,10878,demon,demon,deamon,demon,demon,1593
LAE04,YES,4,18.7,4,4,3,5,5,4,0.25,0.25,0.75,0.25,0.25,0.25,0.25,0.5,Never,Never,Sometimes,Rarely,Often,Rarely,Always,Sometimes,Always,Never,28,11967,goat,gote,goat,goat,goat,537
LAE04,YES,4,18.7,4,4,3,5,5,4,0.25,0.25,0.75,0.25,0.25,0.25,0.25,0.5,Never,Never,Sometimes,Rarely,Often,Rarely,Always,Sometimes,Always,Never,29,12598,rain,rain,rane,rain,rain,2494
LAE04,YES,4,18.7,4,4,3,5,5,4,0.25,0.25,0.75,0.25,0.25,0.25,0.25,0.5,Never,Never,Sometimes,Rarely,Often,Rarely,Always,Sometimes,Always,Never,30,12205,answer,anser,answer,answer,answer,8986
LAE04,YES,4,18.7,4,4,3,5,5,4,0.25,0.25,0.75,0.25,0.25,0.25,0.25,0.5,Never,Never,Sometimes,Rarely,Often,Rarely,Always,Sometimes,Always,Never,31,11126,assure,assure,ashure,assure,assure,1021
LAE04,YES,4,18.7,4,4,3,5,5,4,0.25,0.25,0.75,0.25,0.25,0.25,0.25,0.5,Never,Never,Sometimes,Rarely,Often,Rarely,Always,Sometimes,Always,Never,32,12038,wheat,wheet,wheat,wheat,wheat,293
LAE04,YES,4,18.7,4,4,3,5,5,4,0.25,0.25,0.75,0.25,0.25,0.25,0.25,0.5,Never,Never,Sometimes,Rarely,Often,Rarely,Always,Sometimes,Always,Never,33,11411,grown,grone,grown,grown,grown,1275
LAE04,YES,4,18.7,4,4,3,5,5,4,0.25,0.25,0.75,0.25,0.25,0.25,0.25,0.5,Never,Never,Sometimes,Rarely,Often,Rarely,Always,Sometimes,Always,Never,34,11229,explain,explane,explain,explain,explain,5670
LAE04,YES,4,18.7,4,4,3,5,5,4,0.25,0.25,0.75,0.25,0.25,0.25,0.25,0.5,Never,Never,Sometimes,Rarely,Often,Rarely,Always,Sometimes,Always,Never,35,11127,trousers,trousers,trowsers,trousers,trousers,263
LAE04,YES,4,18.7,4,4,3,5,5,4,0.25,0.25,0.75,0.25,0.25,0.25,0.25,0.5,Never,Never,Sometimes,Rarely,Often,Rarely,Always,Sometimes,Always,Never,36,11565,example,exsample,example,example,example,1527
LAE04,YES,4,18.7,4,4,3,5,5,4,0.25,0.25,0.75,0.25,0.25,0.25,0.25,0.5,Never,Never,Sometimes,Rarely,Often,Rarely,Always,Sometimes,Always,Never,37,12633,wreath,wreath,reath,wreath,wreath,54
LAE04,YES,4,18.7,4,4,3,5,5,4,0.25,0.25,0.75,0.25,0.25,0.25,0.25,0.5,Never,Never,Sometimes,Rarely,Often,Rarely,Always,Sometimes,Always,Never,38,3316,take,take,taik,take,take,96443
LAE04,YES,4,18.7,4,4,3,5,5,4,0.25,0.25,0.75,0.25,0.25,0.25,0.25,0.5,Never,Never,Sometimes,Rarely,Often,Rarely,Always,Sometimes,Always,Never,39,35722,street,streat,street,street,street,7557
LAE04,YES,4,18.7,4,4,3,5,5,4,0.25,0.25,0.75,0.25,0.25,0.25,0.25,0.5,Never,Never,Sometimes,Rarely,Often,Rarely,Always,Sometimes,Always,Never,40,19483,captain,captain,captin,captain,captain,10622
LAE04,YES,4,18.7,4,4,3,5,5,4,0.25,0.25,0.75,0.25,0.25,0.25,0.25,0.5,Never,Never,Sometimes,Rarely,Often,Rarely,Always,Sometimes,Always,Never,41,16766,vero,vero,trew,vero,vero,NA
LAE04,YES,4,18.7,4,4,3,5,5,4,0.25,0.25,0.75,0.25,0.25,0.25,0.25,0.5,Never,Never,Sometimes,Rarely,Often,Rarely,Always,Sometimes,Always,Never,42,10998,travel,travle,travel,travel,travel,1702
LAE04,YES,4,18.7,4,4,3,5,5,4,0.25,0.25,0.75,0.25,0.25,0.25,0.25,0.5,Never,Never,Sometimes,Rarely,Often,Rarely,Always,Sometimes,Always,Never,43,14665,hearth,harth,hearth,hearth,hearth,34
LAE04,YES,4,18.7,4,4,3,5,5,4,0.25,0.25,0.75,0.25,0.25,0.25,0.25,0.5,Never,Never,Sometimes,Rarely,Often,Rarely,Always,Sometimes,Always,Never,44,10727,nice,nice,nise,nice,nice,33125
LAE04,YES,4,18.7,4,4,3,5,5,4,0.25,0.25,0.75,0.25,0.25,0.25,0.25,0.5,Never,Never,Sometimes,Rarely,Often,Rarely,Always,Sometimes,Always,Never,45,15796,coat,coat,cote,coat,coat,2146
LAE04,YES,4,18.7,4,4,3,5,5,4,0.25,0.25,0.75,0.25,0.25,0.25,0.25,0.5,Never,Never,Sometimes,Rarely,Often,Rarely,Always,Sometimes,Always,Never,46,16132,toward,toward,toard,toward,toward,1169
LAE04,YES,4,18.7,4,4,3,5,5,4,0.25,0.25,0.75,0.25,0.25,0.25,0.25,0.5,Never,Never,Sometimes,Rarely,Often,Rarely,Always,Sometimes,Always,Never,47,14455,between,between,betwean,between,between,8932
LAE04,YES,4,18.7,4,4,3,5,5,4,0.25,0.25,0.75,0.25,0.25,0.25,0.25,0.5,Never,Never,Sometimes,Rarely,Often,Rarely,Always,Sometimes,Always,Never,48,10281,choose,choose,chooze,choose,choose,2451
LAE04,YES,4,18.7,4,4,3,5,5,4,0.25,0.25,0.75,0.25,0.25,0.25,0.25,0.5,Never,Never,Sometimes,Rarely,Often,Rarely,Always,Sometimes,Always,Never,49,10441,scare,scare,scair,scare,scare,1712
LAE04,YES,4,18.7,4,4,3,5,5,4,0.25,0.25,0.75,0.25,0.25,0.25,0.25,0.5,Never,Never,Sometimes,Rarely,Often,Rarely,Always,Sometimes,Always,Never,50,9303,wise,wize,wise,wise,wise,1452
LAE04,YES,4,18.7,4,4,3,5,5,4,0.25,0.25,0.75,0.25,0.25,0.25,0.25,0.5,Never,Never,Sometimes,Rarely,Often,Rarely,Always,Sometimes,Always,Never,51,8915,lake,lake,laik,lake,lake,1836
LAE04,YES,4,18.7,4,4,3,5,5,4,0.25,0.25,0.75,0.25,0.25,0.25,0.25,0.5,Never,Never,Sometimes,Rarely,Often,Rarely,Always,Sometimes,Always,Never,52,9298,mystery,mysterey,mystery,mystery,mystery,1171
LAE04,YES,4,18.7,4,4,3,5,5,4,0.25,0.25,0.75,0.25,0.25,0.25,0.25,0.5,Never,Never,Sometimes,Rarely,Often,Rarely,Always,Sometimes,Always,Never,53,11149,culprit,culpert,culprit,culprit,culprit,55
LAE04,YES,4,18.7,4,4,3,5,5,4,0.25,0.25,0.75,0.25,0.25,0.25,0.25,0.5,Never,Never,Sometimes,Rarely,Often,Rarely,Always,Sometimes,Always,Never,54,10098,sleep,sleap,sleep,sleep,sleep,11625
LAE04,YES,4,18.7,4,4,3,5,5,4,0.25,0.25,0.75,0.25,0.25,0.25,0.25,0.5,Never,Never,Sometimes,Rarely,Often,Rarely,Always,Sometimes,Always,Never,55,15695,interesting,interesting,intresting,interesting,interesting,4421
LAE04,YES,4,18.7,4,4,3,5,5,4,0.25,0.25,0.75,0.25,0.25,0.25,0.25,0.5,Never,Never,Sometimes,Rarely,Often,Rarely,Always,Sometimes,Always,Never,56,17407,senators,senaters,senators,senators,senators,120
LAE04,YES,4,18.7,4,4,3,5,5,4,0.25,0.25,0.75,0.25,0.25,0.25,0.25,0.5,Never,Never,Sometimes,Rarely,Often,Rarely,Always,Sometimes,Always,Never,57,11406,fought,fought,faught,fought,fought,1362
LAE04,YES,4,18.7,4,4,3,5,5,4,0.25,0.25,0.75,0.25,0.25,0.25,0.25,0.5,Never,Never,Sometimes,Rarely,Often,Rarely,Always,Sometimes,Always,Never,58,11557,dignity,dignaty,dignity,dignity,dignity,551
LAE04,YES,4,18.7,4,4,3,5,5,4,0.25,0.25,0.75,0.25,0.25,0.25,0.25,0.5,Never,Never,Sometimes,Rarely,Often,Rarely,Always,Sometimes,Always,Never,59,10434,wait,wait,wate,wait,wait,42343
LAE04,YES,4,18.7,4,4,3,5,5,4,0.25,0.25,0.75,0.25,0.25,0.25,0.25,0.5,Never,Never,Sometimes,Rarely,Often,Rarely,Always,Sometimes,Always,Never,60,1037,stream,streem,stream,stream,stream,410
LAE04,YES,4,18.7,4,4,3,5,5,4,0.25,0.25,0.75,0.25,0.25,0.25,0.25,0.5,Never,Never,Sometimes,Rarely,Often,Rarely,Always,Sometimes,Always,Never,61,14169,skate,skait,skate,skate,skate,301
LAE04,YES,4,18.7,4,4,3,5,5,4,0.25,0.25,0.75,0.25,0.25,0.25,0.25,0.5,Never,Never,Sometimes,Rarely,Often,Rarely,Always,Sometimes,Always,Never,62,12094,please,pleese,please,please,please,56149
LAE04,YES,4,18.7,4,4,3,5,5,4,0.25,0.25,0.75,0.25,0.25,0.25,0.25,0.5,Never,Never,Sometimes,Rarely,Often,Rarely,Always,Sometimes,Always,Never,63,11934,ghost,ghost,goast,ghost,ghost,1866
LAE04,YES,4,18.7,4,4,3,5,5,4,0.25,0.25,0.75,0.25,0.25,0.25,0.25,0.5,Never,Never,Sometimes,Rarely,Often,Rarely,Always,Sometimes,Always,Never,64,11554,engine,engine,enjine,engine,engine,1626
LAE04,YES,4,18.7,4,4,3,5,5,4,0.25,0.25,0.75,0.25,0.25,0.25,0.25,0.5,Never,Never,Sometimes,Rarely,Often,Rarely,Always,Sometimes,Always,Never,65,28845,condense,condence,condense,condense,condense,14
LAE04,YES,4,18.7,4,4,3,5,5,4,0.25,0.25,0.75,0.25,0.25,0.25,0.25,0.5,Never,Never,Sometimes,Rarely,Often,Rarely,Always,Sometimes,Always,Never,66,14378,store,store,stoar,store,store,4178
LAE04,YES,4,18.7,4,4,3,5,5,4,0.25,0.25,0.75,0.25,0.25,0.25,0.25,0.5,Never,Never,Sometimes,Rarely,Often,Rarely,Always,Sometimes,Always,Never,67,1242,hole,hoal,hole,hole,hole,2969
LAE04,YES,4,18.7,4,4,3,5,5,4,0.25,0.25,0.75,0.25,0.25,0.25,0.25,0.5,Never,Never,Sometimes,Rarely,Often,Rarely,Always,Sometimes,Always,Never,68,1149,sheep,sheep,sheap,sheep,sheep,685
LAE04,YES,4,18.7,4,4,3,5,5,4,0.25,0.25,0.75,0.25,0.25,0.25,0.25,0.5,Never,Never,Sometimes,Rarely,Often,Rarely,Always,Sometimes,Always,Never,69,11611,easy,easy,eazy,easy,easy,13551
LAE04,YES,4,18.7,4,4,3,5,5,4,0.25,0.25,0.75,0.25,0.25,0.25,0.25,0.5,Never,Never,Sometimes,Rarely,Often,Rarely,Always,Sometimes,Always,Never,70,10868,dream,dreem,dream,dream,dream,6798
LAE04,YES,4,18.7,4,4,3,5,5,4,0.25,0.25,0.75,0.25,0.25,0.25,0.25,0.5,Never,Never,Sometimes,Rarely,Often,Rarely,Always,Sometimes,Always,Never,71,10443,heavy,hevvy,heavy,heavy,heavy,2412
LAE04,YES,4,18.7,4,4,3,5,5,4,0.25,0.25,0.75,0.25,0.25,0.25,0.25,0.5,Never,Never,Sometimes,Rarely,Often,Rarely,Always,Sometimes,Always,Never,72,9884,need,need,nead,need,need,66040
LAE04,YES,4,18.7,4,4,3,5,5,4,0.25,0.25,0.75,0.25,0.25,0.25,0.25,0.5,Never,Never,Sometimes,Rarely,Often,Rarely,Always,Sometimes,Always,Never,73,10684,backwards,backwords,backwards,backwards,backwards,667
LAE04,YES,4,18.7,4,4,3,5,5,4,0.25,0.25,0.75,0.25,0.25,0.25,0.25,0.5,Never,Never,Sometimes,Rarely,Often,Rarely,Always,Sometimes,Always,Never,74,21691,applause,applause,aplause,applause,applause,576
LAE04,YES,4,18.7,4,4,3,5,5,4,0.25,0.25,0.75,0.25,0.25,0.25,0.25,0.5,Never,Never,Sometimes,Rarely,Often,Rarely,Always,Sometimes,Always,Never,75,11398,nostrils,nostrels,nostrils,nostrils,nostrils,82
LAE04,YES,4,18.7,4,4,3,5,5,4,0.25,0.25,0.75,0.25,0.25,0.25,0.25,0.5,Never,Never,Sometimes,Rarely,Often,Rarely,Always,Sometimes,Always,Never,76,10036,sudden,sudden,suddin,sudden,sudden,1707
LAE04,YES,4,18.7,4,4,3,5,5,4,0.25,0.25,0.75,0.25,0.25,0.25,0.25,0.5,Never,Never,Sometimes,Rarely,Often,Rarely,Always,Sometimes,Always,Never,77,11263,salmon,sammon,salmon,salmon,salmon,334
LAE04,YES,4,18.7,4,4,3,5,5,4,0.25,0.25,0.75,0.25,0.25,0.25,0.25,0.5,Never,Never,Sometimes,Rarely,Often,Rarely,Always,Sometimes,Always,Never,78,11705,sensitive,sensitive,sensative,sensitive,sensitive,1149
LAE04,YES,4,18.7,4,4,3,5,5,4,0.25,0.25,0.75,0.25,0.25,0.25,0.25,0.5,Never,Never,Sometimes,Rarely,Often,Rarely,Always,Sometimes,Always,Never,79,11585,nuisance,nusance,nuisance,nuisance,nuisance,164
LAE04,YES,4,18.7,4,4,3,5,5,4,0.25,0.25,0.75,0.25,0.25,0.25,0.25,0.5,Never,Never,Sometimes,Rarely,Often,Rarely,Always,Sometimes,Always,Never,80,13241,muscle,mussle,muscle,muscle,muscle,694
LAE05,NO,4,17.4,5,3,3,5,3,3,0.25,0.25,0.25,0.75,0.5,0.25,0.5,0.5,Rarely,Sometimes,Often,Often,Never,Never,Always,Always,Always,Often,1,17708,resource,resource,resourse,resource,resource,83
LAE05,NO,4,17.4,5,3,3,5,3,3,0.25,0.25,0.25,0.75,0.5,0.25,0.5,0.5,Rarely,Sometimes,Often,Often,Never,Never,Always,Always,Always,Often,2,13785,study,study,studdy,study,study,2501
LAE05,NO,4,17.4,5,3,3,5,3,3,0.25,0.25,0.25,0.75,0.5,0.25,0.5,0.5,Rarely,Sometimes,Often,Often,Never,Never,Always,Always,Always,Often,3,11432,captain,captain,captin,captain,captain,10622
LAE05,NO,4,17.4,5,3,3,5,3,3,0.25,0.25,0.25,0.75,0.5,0.25,0.5,0.5,Rarely,Sometimes,Often,Often,Never,Never,Always,Always,Always,Often,4,10205,basement,baisment,basement,basement,basement,1074
LAE05,NO,4,17.4,5,3,3,5,3,3,0.25,0.25,0.25,0.75,0.5,0.25,0.5,0.5,Rarely,Sometimes,Often,Often,Never,Never,Always,Always,Always,Often,5,13927,sensitive,sensitive,sensative,sensitive,sensitive,1149
LAE05,NO,4,17.4,5,3,3,5,3,3,0.25,0.25,0.25,0.75,0.5,0.25,0.5,0.5,Rarely,Sometimes,Often,Often,Never,Never,Always,Always,Always,Often,6,9789,word,wurd,word,word,word,12013
LAE05,NO,4,17.4,5,3,3,5,3,3,0.25,0.25,0.25,0.75,0.5,0.25,0.5,0.5,Rarely,Sometimes,Often,Often,Never,Never,Always,Always,Always,Often,7,11634,several,several,sevral,several,several,1978
LAE05,NO,4,17.4,5,3,3,5,3,3,0.25,0.25,0.25,0.75,0.5,0.25,0.5,0.5,Rarely,Sometimes,Often,Often,Never,Never,Always,Always,Always,Often,8,10993,need,need,nead,need,need,66040
LAE05,NO,4,17.4,5,3,3,5,3,3,0.25,0.25,0.25,0.75,0.5,0.25,0.5,0.5,Rarely,Sometimes,Often,Often,Never,Never,Always,Always,Always,Often,9,12464,hurt,hert,hurt,hurt,hurt,12564
LAE05,NO,4,17.4,5,3,3,5,3,3,0.25,0.25,0.25,0.75,0.5,0.25,0.5,0.5,Rarely,Sometimes,Often,Often,Never,Never,Always,Always,Always,Often,10,11112,alternative,alternitive,alternative,alternative,alternative,476
LAE05,NO,4,17.4,5,3,3,5,3,3,0.25,0.25,0.25,0.75,0.5,0.25,0.5,0.5,Rarely,Sometimes,Often,Often,Never,Never,Always,Always,Always,Often,11,17176,backwards,backwords,backwards,backwards,backwards,667
LAE05,NO,4,17.4,5,3,3,5,3,3,0.25,0.25,0.25,0.75,0.5,0.25,0.5,0.5,Rarely,Sometimes,Often,Often,Never,Never,Always,Always,Always,Often,12,2400,coat,coat,cote,coat,coat,2146
LAE05,NO,4,17.4,5,3,3,5,3,3,0.25,0.25,0.25,0.75,0.5,0.25,0.5,0.5,Rarely,Sometimes,Often,Often,Never,Never,Always,Always,Always,Often,13,22607,roar,roar,rore,roar,roar,205
LAE05,NO,4,17.4,5,3,3,5,3,3,0.25,0.25,0.25,0.75,0.5,0.25,0.5,0.5,Rarely,Sometimes,Often,Often,Never,Never,Always,Always,Always,Often,14,14289,fought,fought,faught,fought,fought,1362
LAE05,NO,4,17.4,5,3,3,5,3,3,0.25,0.25,0.25,0.75,0.5,0.25,0.5,0.5,Rarely,Sometimes,Often,Often,Never,Never,Always,Always,Always,Often,15,9066,important,importent,important,important,important,10587
LAE05,NO,4,17.4,5,3,3,5,3,3,0.25,0.25,0.25,0.75,0.5,0.25,0.5,0.5,Rarely,Sometimes,Often,Often,Never,Never,Always,Always,Always,Often,16,10549,face,face,fase,face,face,14747
LAE05,NO,4,17.4,5,3,3,5,3,3,0.25,0.25,0.25,0.75,0.5,0.25,0.5,0.5,Rarely,Sometimes,Often,Often,Never,Never,Always,Always,Always,Often,17,17311,mystery,mysterey,mystery,mystery,mystery,1171
LAE05,NO,4,17.4,5,3,3,5,3,3,0.25,0.25,0.25,0.75,0.5,0.25,0.5,0.5,Rarely,Sometimes,Often,Often,Never,Never,Always,Always,Always,Often,18,25477,senators,senaters,senators,senators,senators,120
LAE05,NO,4,17.4,5,3,3,5,3,3,0.25,0.25,0.25,0.75,0.5,0.25,0.5,0.5,Rarely,Sometimes,Often,Often,Never,Never,Always,Always,Always,Often,19,18766,condense,condence,condense,condense,condense,14
LAE05,NO,4,17.4,5,3,3,5,3,3,0.25,0.25,0.25,0.75,0.5,0.25,0.5,0.5,Rarely,Sometimes,Often,Often,Never,Never,Always,Always,Always,Often,20,17562,scare,scare,scair,scare,scare,1712
LAE05,NO,4,17.4,5,3,3,5,3,3,0.25,0.25,0.25,0.75,0.5,0.25,0.5,0.5,Rarely,Sometimes,Often,Often,Never,Never,Always,Always,Always,Often,21,24749,reath,wreath,reath,wreath,wreath,54
LAE05,NO,4,17.4,5,3,3,5,3,3,0.25,0.25,0.25,0.75,0.5,0.25,0.5,0.5,Rarely,Sometimes,Often,Often,Never,Never,Always,Always,Always,Often,22,13928,deep,deap,deep,deep,deep,3896
LAE05,NO,4,17.4,5,3,3,5,3,3,0.25,0.25,0.25,0.75,0.5,0.25,0.5,0.5,Rarely,Sometimes,Often,Often,Never,Never,Always,Always,Always,Often,23,985,easy,easy,eazy,easy,easy,13551
LAE05,NO,4,17.4,5,3,3,5,3,3,0.25,0.25,0.25,0.75,0.5,0.25,0.5,0.5,Rarely,Sometimes,Often,Often,Never,Never,Always,Always,Always,Often,24,13341,toward,toward,toard,toward,toward,1169
LAE05,NO,4,17.4,5,3,3,5,3,3,0.25,0.25,0.25,0.75,0.5,0.25,0.5,0.5,Rarely,Sometimes,Often,Often,Never,Never,Always,Always,Always,Often,25,21764,applause,applause,aplause,applause,applause,576
LAE05,NO,4,17.4,5,3,3,5,3,3,0.25,0.25,0.25,0.75,0.5,0.25,0.5,0.5,Rarely,Sometimes,Often,Often,Never,Never,Always,Always,Always,Often,26,14251,demon,demon,deamon,demon,demon,1593
LAE05,NO,4,17.4,5,3,3,5,3,3,0.25,0.25,0.25,0.75,0.5,0.25,0.5,0.5,Rarely,Sometimes,Often,Often,Never,Never,Always,Always,Always,Often,27,10845,learn,lurn,learn,learn,learn,6047
LAE05,NO,4,17.4,5,3,3,5,3,3,0.25,0.25,0.25,0.75,0.5,0.25,0.5,0.5,Rarely,Sometimes,Often,Often,Never,Never,Always,Always,Always,Often,28,9697,hearth,harth,hearth,hearth,hearth,34
LAE05,NO,4,17.4,5,3,3,5,3,3,0.25,0.25,0.25,0.75,0.5,0.25,0.5,0.5,Rarely,Sometimes,Often,Often,Never,Never,Always,Always,Always,Often,29,1228,wagon,wagon,wagun,wagon,wagon,906
LAE05,NO,4,17.4,5,3,3,5,3,3,0.25,0.25,0.25,0.75,0.5,0.25,0.5,0.5,Rarely,Sometimes,Often,Often,Never,Never,Always,Always,Always,Often,30,24845,interesting,interesting,intresting,interesting,interesting,4421
LAE05,NO,4,17.4,5,3,3,5,3,3,0.25,0.25,0.25,0.75,0.5,0.25,0.5,0.5,Rarely,Sometimes,Often,Often,Never,Never,Always,Always,Always,Often,31,11161,choose,choose,chooze,choose,choose,2451
LAE05,NO,4,17.4,5,3,3,5,3,3,0.25,0.25,0.25,0.75,0.5,0.25,0.5,0.5,Rarely,Sometimes,Often,Often,Never,Never,Always,Always,Always,Often,32,10681,wait,wait,wate,wait,wait,42343
LAE05,NO,4,17.4,5,3,3,5,3,3,0.25,0.25,0.25,0.75,0.5,0.25,0.5,0.5,Rarely,Sometimes,Often,Often,Never,Never,Always,Always,Always,Often,33,10038,answer,anser,answer,answer,answer,8986
LAE05,NO,4,17.4,5,3,3,5,3,3,0.25,0.25,0.25,0.75,0.5,0.25,0.5,0.5,Rarely,Sometimes,Often,Often,Never,Never,Always,Always,Always,Often,34,10197,grown,grone,grown,grown,grown,1275
LAE05,NO,4,17.4,5,3,3,5,3,3,0.25,0.25,0.25,0.75,0.5,0.25,0.5,0.5,Rarely,Sometimes,Often,Often,Never,Never,Always,Always,Always,Often,35,10535,between,between,betwean,between,between,8932
LAE05,NO,4,17.4,5,3,3,5,3,3,0.25,0.25,0.25,0.75,0.5,0.25,0.5,0.5,Rarely,Sometimes,Often,Often,Never,Never,Always,Always,Always,Often,36,11788,salad,salad,sallad,salad,salad,868
LAE05,NO,4,17.4,5,3,3,5,3,3,0.25,0.25,0.25,0.75,0.5,0.25,0.5,0.5,Rarely,Sometimes,Often,Often,Never,Never,Always,Always,Always,Often,37,9616,salmon,sammon,salmon,salmon,salmon,334
LAE05,NO,4,17.4,5,3,3,5,3,3,0.25,0.25,0.25,0.75,0.5,0.25,0.5,0.5,Rarely,Sometimes,Often,Often,Never,Never,Always,Always,Always,Often,38,812,vero,vero,trew,vero,vero,NA
LAE05,NO,4,17.4,5,3,3,5,3,3,0.25,0.25,0.25,0.75,0.5,0.25,0.5,0.5,Rarely,Sometimes,Often,Often,Never,Never,Always,Always,Always,Often,39,8127,muscle,mussle,muscle,muscle,muscle,694
LAE05,NO,4,17.4,5,3,3,5,3,3,0.25,0.25,0.25,0.75,0.5,0.25,0.5,0.5,Rarely,Sometimes,Often,Often,Never,Never,Always,Always,Always,Often,40,9307,example,exsample,example,example,example,1527
LAE05,NO,4,17.4,5,3,3,5,3,3,0.25,0.25,0.25,0.75,0.5,0.25,0.5,0.5,Rarely,Sometimes,Often,Often,Never,Never,Always,Always,Always,Often,41,8661,compliment,compliment,complimant,compliment,compliment,523
LAE05,NO,4,17.4,5,3,3,5,3,3,0.25,0.25,0.25,0.75,0.5,0.25,0.5,0.5,Rarely,Sometimes,Often,Often,Never,Never,Always,Always,Always,Often,42,877,wise,wize,wise,wise,wise,1452
LAE05,NO,4,17.4,5,3,3,5,3,3,0.25,0.25,0.25,0.75,0.5,0.25,0.5,0.5,Rarely,Sometimes,Often,Often,Never,Never,Always,Always,Always,Often,43,8748,every,evry,every,every,every,28007
LAE05,NO,4,17.4,5,3,3,5,3,3,0.25,0.25,0.25,0.75,0.5,0.25,0.5,0.5,Rarely,Sometimes,Often,Often,Never,Never,Always,Always,Always,Often,44,9077,goat,gote,goat,goat,goat,537
LAE05,NO,4,17.4,5,3,3,5,3,3,0.25,0.25,0.25,0.75,0.5,0.25,0.5,0.5,Rarely,Sometimes,Often,Often,Never,Never,Always,Always,Always,Often,45,16434,nostrils,nostrels,nostrils,nostrils,nostrils,82
LAE05,NO,4,17.4,5,3,3,5,3,3,0.25,0.25,0.25,0.75,0.5,0.25,0.5,0.5,Rarely,Sometimes,Often,Often,Never,Never,Always,Always,Always,Often,46,9334,please,pleese,please,please,please,56149
LAE05,NO,4,17.4,5,3,3,5,3,3,0.25,0.25,0.25,0.75,0.5,0.25,0.5,0.5,Rarely,Sometimes,Often,Often,Never,Never,Always,Always,Always,Often,47,9422,hole,hoal,hole,hole,hole,2969
LAE05,NO,4,17.4,5,3,3,5,3,3,0.25,0.25,0.25,0.75,0.5,0.25,0.5,0.5,Rarely,Sometimes,Often,Often,Never,Never,Always,Always,Always,Often,48,8858,wheat,wheet,wheat,wheat,wheat,293
LAE05,NO,4,17.4,5,3,3,5,3,3,0.25,0.25,0.25,0.75,0.5,0.25,0.5,0.5,Rarely,Sometimes,Often,Often,Never,Never,Always,Always,Always,Often,49,8738,heavy,hevvy,heavy,heavy,heavy,2412
LAE05,NO,4,17.4,5,3,3,5,3,3,0.25,0.25,0.25,0.75,0.5,0.25,0.5,0.5,Rarely,Sometimes,Often,Often,Never,Never,Always,Always,Always,Often,50,8678,travel,travle,travel,travel,travel,1702
LAE05,NO,4,17.4,5,3,3,5,3,3,0.25,0.25,0.25,0.75,0.5,0.25,0.5,0.5,Rarely,Sometimes,Often,Often,Never,Never,Always,Always,Always,Often,51,13376,ghost,ghost,goast,ghost,ghost,1866
LAE05,NO,4,17.4,5,3,3,5,3,3,0.25,0.25,0.25,0.75,0.5,0.25,0.5,0.5,Rarely,Sometimes,Often,Often,Never,Never,Always,Always,Always,Often,52,10516,purched,perched,purched,perched,perched,30
LAE05,NO,4,17.4,5,3,3,5,3,3,0.25,0.25,0.25,0.75,0.5,0.25,0.5,0.5,Rarely,Sometimes,Often,Often,Never,Never,Always,Always,Always,Often,53,21095,culpert,culpert,culprit,culprit,culprit,55
LAE05,NO,4,17.4,5,3,3,5,3,3,0.25,0.25,0.25,0.75,0.5,0.25,0.5,0.5,Rarely,Sometimes,Often,Often,Never,Never,Always,Always,Always,Often,54,10767,tape,taip,tape,tape,tape,3511
LAE05,NO,4,17.4,5,3,3,5,3,3,0.25,0.25,0.25,0.75,0.5,0.25,0.5,0.5,Rarely,Sometimes,Often,Often,Never,Never,Always,Always,Always,Often,55,9056,thumb,thum,thumb,thumb,thumb,603
LAE05,NO,4,17.4,5,3,3,5,3,3,0.25,0.25,0.25,0.75,0.5,0.25,0.5,0.5,Rarely,Sometimes,Often,Often,Never,Never,Always,Always,Always,Often,56,10611,distance,distence,distance,distance,distance,1306
LAE05,NO,4,17.4,5,3,3,5,3,3,0.25,0.25,0.25,0.75,0.5,0.25,0.5,0.5,Rarely,Sometimes,Often,Often,Never,Never,Always,Always,Always,Often,57,19763,explain,explane,explain,explain,explain,5670
LAE05,NO,4,17.4,5,3,3,5,3,3,0.25,0.25,0.25,0.75,0.5,0.25,0.5,0.5,Rarely,Sometimes,Often,Often,Never,Never,Always,Always,Always,Often,58,11873,skate,skait,skate,skate,skate,301
LAE05,NO,4,17.4,5,3,3,5,3,3,0.25,0.25,0.25,0.75,0.5,0.25,0.5,0.5,Rarely,Sometimes,Often,Often,Never,Never,Always,Always,Always,Often,59,17002,pavement,pavement,pavemant,pavement,pavement,103
LAE05,NO,4,17.4,5,3,3,5,3,3,0.25,0.25,0.25,0.75,0.5,0.25,0.5,0.5,Rarely,Sometimes,Often,Often,Never,Never,Always,Always,Always,Often,60,11236,stream,streem,stream,stream,stream,410
LAE05,NO,4,17.4,5,3,3,5,3,3,0.25,0.25,0.25,0.75,0.5,0.25,0.5,0.5,Rarely,Sometimes,Often,Often,Never,Never,Always,Always,Always,Often,61,10764,assure,assure,ashure,assure,assure,1021
LAE05,NO,4,17.4,5,3,3,5,3,3,0.25,0.25,0.25,0.75,0.5,0.25,0.5,0.5,Rarely,Sometimes,Often,Often,Never,Never,Always,Always,Always,Often,62,981,dream,dreem,dream,dream,dream,6798
LAE05,NO,4,17.4,5,3,3,5,3,3,0.25,0.25,0.25,0.75,0.5,0.25,0.5,0.5,Rarely,Sometimes,Often,Often,Never,Never,Always,Always,Always,Often,63,9093,keep,keep,keap,keep,keep,35846
LAE05,NO,4,17.4,5,3,3,5,3,3,0.25,0.25,0.25,0.75,0.5,0.25,0.5,0.5,Rarely,Sometimes,Often,Often,Never,Never,Always,Always,Always,Often,64,9091,nice,nice,nise,nice,nice,33125
LAE05,NO,4,17.4,5,3,3,5,3,3,0.25,0.25,0.25,0.75,0.5,0.25,0.5,0.5,Rarely,Sometimes,Often,Often,Never,Never,Always,Always,Always,Often,65,837,street,streat,street,street,street,7557
LAE05,NO,4,17.4,5,3,3,5,3,3,0.25,0.25,0.25,0.75,0.5,0.25,0.5,0.5,Rarely,Sometimes,Often,Often,Never,Never,Always,Always,Always,Often,66,10025,take,take,taik,take,take,96443
LAE05,NO,4,17.4,5,3,3,5,3,3,0.25,0.25,0.25,0.75,0.5,0.25,0.5,0.5,Rarely,Sometimes,Often,Often,Never,Never,Always,Always,Always,Often,67,11252,rain,rain,rane,rain,rain,2494
LAE05,NO,4,17.4,5,3,3,5,3,3,0.25,0.25,0.25,0.75,0.5,0.25,0.5,0.5,Rarely,Sometimes,Often,Often,Never,Never,Always,Always,Always,Often,68,9244,liberty,liberty,libberty,liberty,liberty,849
LAE05,NO,4,17.4,5,3,3,5,3,3,0.25,0.25,0.25,0.75,0.5,0.25,0.5,0.5,Rarely,Sometimes,Often,Often,Never,Never,Always,Always,Always,Often,69,8902,store,store,stoar,store,store,4178
LAE05,NO,4,17.4,5,3,3,5,3,3,0.25,0.25,0.25,0.75,0.5,0.25,0.5,0.5,Rarely,Sometimes,Often,Often,Never,Never,Always,Always,Always,Often,70,9795,sudden,sudden,suddin,sudden,sudden,1707
LAE05,NO,4,17.4,5,3,3,5,3,3,0.25,0.25,0.25,0.75,0.5,0.25,0.5,0.5,Rarely,Sometimes,Often,Often,Never,Never,Always,Always,Always,Often,71,10532,few,fue,few,few,few,15393
LAE05,NO,4,17.4,5,3,3,5,3,3,0.25,0.25,0.25,0.75,0.5,0.25,0.5,0.5,Rarely,Sometimes,Often,Often,Never,Never,Always,Always,Always,Often,72,17163,believe,believe,beleave,believe,believe,31882
LAE05,NO,4,17.4,5,3,3,5,3,3,0.25,0.25,0.25,0.75,0.5,0.25,0.5,0.5,Rarely,Sometimes,Often,Often,Never,Never,Always,Always,Always,Often,73,11416,sheep,sheep,sheap,sheep,sheep,685
LAE05,NO,4,17.4,5,3,3,5,3,3,0.25,0.25,0.25,0.75,0.5,0.25,0.5,0.5,Rarely,Sometimes,Often,Often,Never,Never,Always,Always,Always,Often,74,17393,nuisance,nusance,nuisance,nuisance,nuisance,164
LAE05,NO,4,17.4,5,3,3,5,3,3,0.25,0.25,0.25,0.75,0.5,0.25,0.5,0.5,Rarely,Sometimes,Often,Often,Never,Never,Always,Always,Always,Often,75,9329,dignity,dignaty,dignity,dignity,dignity,551
LAE05,NO,4,17.4,5,3,3,5,3,3,0.25,0.25,0.25,0.75,0.5,0.25,0.5,0.5,Rarely,Sometimes,Often,Often,Never,Never,Always,Always,Always,Often,76,8723,engine,engine,enjine,engine,engine,1626
LAE05,NO,4,17.4,5,3,3,5,3,3,0.25,0.25,0.25,0.75,0.5,0.25,0.5,0.5,Rarely,Sometimes,Often,Often,Never,Never,Always,Always,Always,Often,77,1173,trousers,trousers,trowsers,trousers,trousers,263
LAE05,NO,4,17.4,5,3,3,5,3,3,0.25,0.25,0.25,0.75,0.5,0.25,0.5,0.5,Rarely,Sometimes,Often,Often,Never,Never,Always,Always,Always,Often,78,9089,smoke,smoke,smoak,smoke,smoke,3337
LAE05,NO,4,17.4,5,3,3,5,3,3,0.25,0.25,0.25,0.75,0.5,0.25,0.5,0.5,Rarely,Sometimes,Often,Often,Never,Never,Always,Always,Always,Often,79,7653,sleep,sleap,sleep,sleep,sleep,11625
LAE05,NO,4,17.4,5,3,3,5,3,3,0.25,0.25,0.25,0.75,0.5,0.25,0.5,0.5,Rarely,Sometimes,Often,Often,Never,Never,Always,Always,Always,Often,80,9559,lake,lake,laik,lake,lake,1836
LAE06,NO,1,14.3,5,5,3,3,4,3,0,0,0.25,0,0.25,0.25,0.25,0.25,Never,Rarely,Never,Often,Never,Never,Sometimes,Often,Sometimes,Rarely,1,20506,sleep,sleap,sleep,sleep,sleep,11625
LAE06,NO,1,14.3,5,5,3,3,4,3,0,0,0.25,0,0.25,0.25,0.25,0.25,Never,Rarely,Never,Often,Never,Never,Sometimes,Often,Sometimes,Rarely,2,21445,purched,perched,purched,perched,perched,30
LAE06,NO,1,14.3,5,5,3,3,4,3,0,0,0.25,0,0.25,0.25,0.25,0.25,Never,Rarely,Never,Often,Never,Never,Sometimes,Often,Sometimes,Rarely,3,16099,travel,travle,travel,travel,travel,1702
LAE06,NO,1,14.3,5,5,3,3,4,3,0,0,0.25,0,0.25,0.25,0.25,0.25,Never,Rarely,Never,Often,Never,Never,Sometimes,Often,Sometimes,Rarely,4,15461,keep,keep,keap,keep,keep,35846
LAE06,NO,1,14.3,5,5,3,3,4,3,0,0,0.25,0,0.25,0.25,0.25,0.25,Never,Rarely,Never,Often,Never,Never,Sometimes,Often,Sometimes,Rarely,5,13805,grown,grone,grown,grown,grown,1275
LAE06,NO,1,14.3,5,5,3,3,4,3,0,0,0.25,0,0.25,0.25,0.25,0.25,Never,Rarely,Never,Often,Never,Never,Sometimes,Often,Sometimes,Rarely,6,26117,wagon,wagon,wagun,wagon,wagon,906
LAE06,NO,1,14.3,5,5,3,3,4,3,0,0,0.25,0,0.25,0.25,0.25,0.25,Never,Rarely,Never,Often,Never,Never,Sometimes,Often,Sometimes,Rarely,7,36531,fought,fought,faught,fought,fought,1362
LAE06,NO,1,14.3,5,5,3,3,4,3,0,0,0.25,0,0.25,0.25,0.25,0.25,Never,Rarely,Never,Often,Never,Never,Sometimes,Often,Sometimes,Rarely,8,3661,hurt,hert,hurt,hurt,hurt,12564
LAE06,NO,1,14.3,5,5,3,3,4,3,0,0,0.25,0,0.25,0.25,0.25,0.25,Never,Rarely,Never,Often,Never,Never,Sometimes,Often,Sometimes,Rarely,9,18911,engine,engine,enjine,engine,engine,1626
LAE06,NO,1,14.3,5,5,3,3,4,3,0,0,0.25,0,0.25,0.25,0.25,0.25,Never,Rarely,Never,Often,Never,Never,Sometimes,Often,Sometimes,Rarely,10,18037,toward,toward,toard,toward,toward,1169
LAE06,NO,1,14.3,5,5,3,3,4,3,0,0,0.25,0,0.25,0.25,0.25,0.25,Never,Rarely,Never,Often,Never,Never,Sometimes,Often,Sometimes,Rarely,11,14518,deep,deap,deep,deep,deep,3896
LAE06,NO,1,14.3,5,5,3,3,4,3,0,0,0.25,0,0.25,0.25,0.25,0.25,Never,Rarely,Never,Often,Never,Never,Sometimes,Often,Sometimes,Rarely,12,37796,resource,resource,resourse,resource,resource,83
LAE06,NO,1,14.3,5,5,3,3,4,3,0,0,0.25,0,0.25,0.25,0.25,0.25,Never,Rarely,Never,Often,Never,Never,Sometimes,Often,Sometimes,Rarely,13,12903,smoke,smoke,smoak,smoke,smoke,3337
LAE06,NO,1,14.3,5,5,3,3,4,3,0,0,0.25,0,0.25,0.25,0.25,0.25,Never,Rarely,Never,Often,Never,Never,Sometimes,Often,Sometimes,Rarely,14,17159,sensitive,sensitive,sensative,sensitive,sensitive,1149
LAE06,NO,1,14.3,5,5,3,3,4,3,0,0,0.25,0,0.25,0.25,0.25,0.25,Never,Rarely,Never,Often,Never,Never,Sometimes,Often,Sometimes,Rarely,15,35722,senators,senaters,senators,senators,senators,120
LAE06,NO,1,14.3,5,5,3,3,4,3,0,0,0.25,0,0.25,0.25,0.25,0.25,Never,Rarely,Never,Often,Never,Never,Sometimes,Often,Sometimes,Rarely,16,2409,wise,wize,wise,wise,wise,1452
LAE06,NO,1,14.3,5,5,3,3,4,3,0,0,0.25,0,0.25,0.25,0.25,0.25,Never,Rarely,Never,Often,Never,Never,Sometimes,Often,Sometimes,Rarely,17,36686,wreath,wreath,reath,wreath,wreath,54
LAE06,NO,1,14.3,5,5,3,3,4,3,0,0,0.25,0,0.25,0.25,0.25,0.25,Never,Rarely,Never,Often,Never,Never,Sometimes,Often,Sometimes,Rarely,18,16105,hearth,harth,hearth,hearth,hearth,34
LAE06,NO,1,14.3,5,5,3,3,4,3,0,0,0.25,0,0.25,0.25,0.25,0.25,Never,Rarely,Never,Often,Never,Never,Sometimes,Often,Sometimes,Rarely,19,15719,face,face,fase,face,face,14747
LAE06,NO,1,14.3,5,5,3,3,4,3,0,0,0.25,0,0.25,0.25,0.25,0.25,Never,Rarely,Never,Often,Never,Never,Sometimes,Often,Sometimes,Rarely,20,16198,please,pleese,please,please,please,56149
LAE06,NO,1,14.3,5,5,3,3,4,3,0,0,0.25,0,0.25,0.25,0.25,0.25,Never,Rarely,Never,Often,Never,Never,Sometimes,Often,Sometimes,Rarely,21,31569,wheat,wheet,wheat,wheat,wheat,293
LAE06,NO,1,14.3,5,5,3,3,4,3,0,0,0.25,0,0.25,0.25,0.25,0.25,Never,Rarely,Never,Often,Never,Never,Sometimes,Often,Sometimes,Rarely,22,44039,culpert,culpert,culprit,culprit,culprit,55
LAE06,NO,1,14.3,5,5,3,3,4,3,0,0,0.25,0,0.25,0.25,0.25,0.25,Never,Rarely,Never,Often,Never,Never,Sometimes,Often,Sometimes,Rarely,23,17799,alternative,alternitive,alternative,alternative,alternative,476
LAE06,NO,1,14.3,5,5,3,3,4,3,0,0,0.25,0,0.25,0.25,0.25,0.25,Never,Rarely,Never,Often,Never,Never,Sometimes,Often,Sometimes,Rarely,24,2924,nostrels,nostrels,nostrils,nostrils,nostrils,82
LAE06,NO,1,14.3,5,5,3,3,4,3,0,0,0.25,0,0.25,0.25,0.25,0.25,Never,Rarely,Never,Often,Never,Never,Sometimes,Often,Sometimes,Rarely,25,28277,scare,scare,scair,scare,scare,1712
LAE06,NO,1,14.3,5,5,3,3,4,3,0,0,0.25,0,0.25,0.25,0.25,0.25,Never,Rarely,Never,Often,Never,Never,Sometimes,Often,Sometimes,Rarely,26,26343,sheep,sheep,sheap,sheep,sheep,685
LAE06,NO,1,14.3,5,5,3,3,4,3,0,0,0.25,0,0.25,0.25,0.25,0.25,Never,Rarely,Never,Often,Never,Never,Sometimes,Often,Sometimes,Rarely,27,14998,answer,anser,answer,answer,answer,8986
LAE06,NO,1,14.3,5,5,3,3,4,3,0,0,0.25,0,0.25,0.25,0.25,0.25,Never,Rarely,Never,Often,Never,Never,Sometimes,Often,Sometimes,Rarely,28,23159,assure,assure,ashure,assure,assure,1021
LAE06,NO,1,14.3,5,5,3,3,4,3,0,0,0.25,0,0.25,0.25,0.25,0.25,Never,Rarely,Never,Often,Never,Never,Sometimes,Often,Sometimes,Rarely,29,20592,several,several,sevral,several,several,1978
LAE06,NO,1,14.3,5,5,3,3,4,3,0,0,0.25,0,0.25,0.25,0.25,0.25,Never,Rarely,Never,Often,Never,Never,Sometimes,Often,Sometimes,Rarely,30,22359,captain,captain,captin,captain,captain,10622
LAE06,NO,1,14.3,5,5,3,3,4,3,0,0,0.25,0,0.25,0.25,0.25,0.25,Never,Rarely,Never,Often,Never,Never,Sometimes,Often,Sometimes,Rarely,31,18567,store,store,stoar,store,store,4178
LAE06,NO,1,14.3,5,5,3,3,4,3,0,0,0.25,0,0.25,0.25,0.25,0.25,Never,Rarely,Never,Often,Never,Never,Sometimes,Often,Sometimes,Rarely,32,15327,sudden,sudden,suddin,sudden,sudden,1707
LAE06,NO,1,14.3,5,5,3,3,4,3,0,0,0.25,0,0.25,0.25,0.25,0.25,Never,Rarely,Never,Often,Never,Never,Sometimes,Often,Sometimes,Rarely,33,14448,dream,dreem,dream,dream,dream,6798
LAE06,NO,1,14.3,5,5,3,3,4,3,0,0,0.25,0,0.25,0.25,0.25,0.25,Never,Rarely,Never,Often,Never,Never,Sometimes,Often,Sometimes,Rarely,34,80926,nusance,nusance,nuisance,nuisance,nuisance,164
LAE06,NO,1,14.3,5,5,3,3,4,3,0,0,0.25,0,0.25,0.25,0.25,0.25,Never,Rarely,Never,Often,Never,Never,Sometimes,Often,Sometimes,Rarely,35,1612,goat,gote,goat,goat,goat,537
LAE06,NO,1,14.3,5,5,3,3,4,3,0,0,0.25,0,0.25,0.25,0.25,0.25,Never,Rarely,Never,Often,Never,Never,Sometimes,Often,Sometimes,Rarely,36,3620,compliment,compliment,complimant,compliment,compliment,523
LAE06,NO,1,14.3,5,5,3,3,4,3,0,0,0.25,0,0.25,0.25,0.25,0.25,Never,Rarely,Never,Often,Never,Never,Sometimes,Often,Sometimes,Rarely,37,14045,word,wurd,word,word,word,12013
LAE06,NO,1,14.3,5,5,3,3,4,3,0,0,0.25,0,0.25,0.25,0.25,0.25,Never,Rarely,Never,Often,Never,Never,Sometimes,Often,Sometimes,Rarely,38,3318,mussle,mussle,muscle,muscle,muscle,694
LAE06,NO,1,14.3,5,5,3,3,4,3,0,0,0.25,0,0.25,0.25,0.25,0.25,Never,Rarely,Never,Often,Never,Never,Sometimes,Often,Sometimes,Rarely,39,12927,few,fue,few,few,few,15393
LAE06,NO,1,14.3,5,5,3,3,4,3,0,0,0.25,0,0.25,0.25,0.25,0.25,Never,Rarely,Never,Often,Never,Never,Sometimes,Often,Sometimes,Rarely,40,21468,stream,streem,stream,stream,stream,410
LAE06,NO,1,14.3,5,5,3,3,4,3,0,0,0.25,0,0.25,0.25,0.25,0.25,Never,Rarely,Never,Often,Never,Never,Sometimes,Often,Sometimes,Rarely,41,3629,demon,demon,deamon,demon,demon,1593
LAE06,NO,1,14.3,5,5,3,3,4,3,0,0,0.25,0,0.25,0.25,0.25,0.25,Never,Rarely,Never,Often,Never,Never,Sometimes,Often,Sometimes,Rarely,42,16038,between,between,betwean,between,between,8932
LAE06,NO,1,14.3,5,5,3,3,4,3,0,0,0.25,0,0.25,0.25,0.25,0.25,Never,Rarely,Never,Often,Never,Never,Sometimes,Often,Sometimes,Rarely,43,38841,interesting,interesting,intresting,interesting,interesting,4421
LAE06,NO,1,14.3,5,5,3,3,4,3,0,0,0.25,0,0.25,0.25,0.25,0.25,Never,Rarely,Never,Often,Never,Never,Sometimes,Often,Sometimes,Rarely,44,12913,liberty,liberty,libberty,liberty,liberty,849
LAE06,NO,1,14.3,5,5,3,3,4,3,0,0,0.25,0,0.25,0.25,0.25,0.25,Never,Rarely,Never,Often,Never,Never,Sometimes,Often,Sometimes,Rarely,45,13346,learn,lurn,learn,learn,learn,6047
LAE06,NO,1,14.3,5,5,3,3,4,3,0,0,0.25,0,0.25,0.25,0.25,0.25,Never,Rarely,Never,Often,Never,Never,Sometimes,Often,Sometimes,Rarely,46,17639,basement,baisment,basement,basement,basement,1074
LAE06,NO,1,14.3,5,5,3,3,4,3,0,0,0.25,0,0.25,0.25,0.25,0.25,Never,Rarely,Never,Often,Never,Never,Sometimes,Often,Sometimes,Rarely,47,23164,explain,explane,explain,explain,explain,5670
LAE06,NO,1,14.3,5,5,3,3,4,3,0,0,0.25,0,0.25,0.25,0.25,0.25,Never,Rarely,Never,Often,Never,Never,Sometimes,Often,Sometimes,Rarely,48,36608,mystery,mysterey,mystery,mystery,mystery,1171
LAE06,NO,1,14.3,5,5,3,3,4,3,0,0,0.25,0,0.25,0.25,0.25,0.25,Never,Rarely,Never,Often,Never,Never,Sometimes,Often,Sometimes,Rarely,49,19638,dignity,dignaty,dignity,dignity,dignity,551
LAE06,NO,1,14.3,5,5,3,3,4,3,0,0,0.25,0,0.25,0.25,0.25,0.25,Never,Rarely,Never,Often,Never,Never,Sometimes,Often,Sometimes,Rarely,50,12615,easy,easy,eazy,easy,easy,13551
LAE06,NO,1,14.3,5,5,3,3,4,3,0,0,0.25,0,0.25,0.25,0.25,0.25,Never,Rarely,Never,Often,Never,Never,Sometimes,Often,Sometimes,Rarely,51,22014,roar,roar,rore,roar,roar,205
LAE06,NO,1,14.3,5,5,3,3,4,3,0,0,0.25,0,0.25,0.25,0.25,0.25,Never,Rarely,Never,Often,Never,Never,Sometimes,Often,Sometimes,Rarely,52,15641,ghost,ghost,goast,ghost,ghost,1866
LAE06,NO,1,14.3,5,5,3,3,4,3,0,0,0.25,0,0.25,0.25,0.25,0.25,Never,Rarely,Never,Often,Never,Never,Sometimes,Often,Sometimes,Rarely,53,15715,distance,distence,distance,distance,distance,1306
LAE06,NO,1,14.3,5,5,3,3,4,3,0,0,0.25,0,0.25,0.25,0.25,0.25,Never,Rarely,Never,Often,Never,Never,Sometimes,Often,Sometimes,Rarely,54,16047,coat,coat,cote,coat,coat,2146
LAE06,NO,1,14.3,5,5,3,3,4,3,0,0,0.25,0,0.25,0.25,0.25,0.25,Never,Rarely,Never,Often,Never,Never,Sometimes,Often,Sometimes,Rarely,55,72289,applause,applause,aplause,applause,applause,576
LAE06,NO,1,14.3,5,5,3,3,4,3,0,0,0.25,0,0.25,0.25,0.25,0.25,Never,Rarely,Never,Often,Never,Never,Sometimes,Often,Sometimes,Rarely,56,13551,heavy,hevvy,heavy,heavy,heavy,2412
LAE06,NO,1,14.3,5,5,3,3,4,3,0,0,0.25,0,0.25,0.25,0.25,0.25,Never,Rarely,Never,Often,Never,Never,Sometimes,Often,Sometimes,Rarely,57,20679,salmon,sammon,salmon,salmon,salmon,334
LAE06,NO,1,14.3,5,5,3,3,4,3,0,0,0.25,0,0.25,0.25,0.25,0.25,Never,Rarely,Never,Often,Never,Never,Sometimes,Often,Sometimes,Rarely,58,15638,vero,vero,trew,vero,vero,NA
LAE06,NO,1,14.3,5,5,3,3,4,3,0,0,0.25,0,0.25,0.25,0.25,0.25,Never,Rarely,Never,Often,Never,Never,Sometimes,Often,Sometimes,Rarely,59,22843,trousers,trousers,trowsers,trousers,trousers,263
LAE06,NO,1,14.3,5,5,3,3,4,3,0,0,0.25,0,0.25,0.25,0.25,0.25,Never,Rarely,Never,Often,Never,Never,Sometimes,Often,Sometimes,Rarely,60,13785,skate,skait,skate,skate,skate,301
LAE06,NO,1,14.3,5,5,3,3,4,3,0,0,0.25,0,0.25,0.25,0.25,0.25,Never,Rarely,Never,Often,Never,Never,Sometimes,Often,Sometimes,Rarely,61,13559,believe,believe,beleave,believe,believe,31882
LAE06,NO,1,14.3,5,5,3,3,4,3,0,0,0.25,0,0.25,0.25,0.25,0.25,Never,Rarely,Never,Often,Never,Never,Sometimes,Often,Sometimes,Rarely,62,13013,lake,lake,laik,lake,lake,1836
LAE06,NO,1,14.3,5,5,3,3,4,3,0,0,0.25,0,0.25,0.25,0.25,0.25,Never,Rarely,Never,Often,Never,Never,Sometimes,Often,Sometimes,Rarely,63,14279,rain,rain,rane,rain,rain,2494
LAE06,NO,1,14.3,5,5,3,3,4,3,0,0,0.25,0,0.25,0.25,0.25,0.25,Never,Rarely,Never,Often,Never,Never,Sometimes,Often,Sometimes,Rarely,64,12848,take,take,taik,take,take,96443
LAE06,NO,1,14.3,5,5,3,3,4,3,0,0,0.25,0,0.25,0.25,0.25,0.25,Never,Rarely,Never,Often,Never,Never,Sometimes,Often,Sometimes,Rarely,65,63324,pavement,pavement,pavemant,pavement,pavement,103
LAE06,NO,1,14.3,5,5,3,3,4,3,0,0,0.25,0,0.25,0.25,0.25,0.25,Never,Rarely,Never,Often,Never,Never,Sometimes,Often,Sometimes,Rarely,66,14918,tape,taip,tape,tape,tape,3511
LAE06,NO,1,14.3,5,5,3,3,4,3,0,0,0.25,0,0.25,0.25,0.25,0.25,Never,Rarely,Never,Often,Never,Never,Sometimes,Often,Sometimes,Rarely,67,11401,choose,choose,chooze,choose,choose,2451
LAE06,NO,1,14.3,5,5,3,3,4,3,0,0,0.25,0,0.25,0.25,0.25,0.25,Never,Rarely,Never,Often,Never,Never,Sometimes,Often,Sometimes,Rarely,68,14997,thumb,thum,thumb,thumb,thumb,603
LAE06,NO,1,14.3,5,5,3,3,4,3,0,0,0.25,0,0.25,0.25,0.25,0.25,Never,Rarely,Never,Often,Never,Never,Sometimes,Often,Sometimes,Rarely,69,154038,condense,condence,condense,condense,condense,14
LAE06,NO,1,14.3,5,5,3,3,4,3,0,0,0.25,0,0.25,0.25,0.25,0.25,Never,Rarely,Never,Often,Never,Never,Sometimes,Often,Sometimes,Rarely,70,11985,hole,hoal,hole,hole,hole,2969
LAE06,NO,1,14.3,5,5,3,3,4,3,0,0,0.25,0,0.25,0.25,0.25,0.25,Never,Rarely,Never,Often,Never,Never,Sometimes,Often,Sometimes,Rarely,71,13686,nice,nice,nise,nice,nice,33125
LAE06,NO,1,14.3,5,5,3,3,4,3,0,0,0.25,0,0.25,0.25,0.25,0.25,Never,Rarely,Never,Often,Never,Never,Sometimes,Often,Sometimes,Rarely,72,9322,need,need,nead,need,need,66040
LAE06,NO,1,14.3,5,5,3,3,4,3,0,0,0.25,0,0.25,0.25,0.25,0.25,Never,Rarely,Never,Often,Never,Never,Sometimes,Often,Sometimes,Rarely,73,15956,wait,wait,wate,wait,wait,42343
LAE06,NO,1,14.3,5,5,3,3,4,3,0,0,0.25,0,0.25,0.25,0.25,0.25,Never,Rarely,Never,Often,Never,Never,Sometimes,Often,Sometimes,Rarely,74,30447,backwords,backwords,backwards,backwards,backwards,667
LAE06,NO,1,14.3,5,5,3,3,4,3,0,0,0.25,0,0.25,0.25,0.25,0.25,Never,Rarely,Never,Often,Never,Never,Sometimes,Often,Sometimes,Rarely,75,31966,street,streat,street,street,street,7557
LAE06,NO,1,14.3,5,5,3,3,4,3,0,0,0.25,0,0.25,0.25,0.25,0.25,Never,Rarely,Never,Often,Never,Never,Sometimes,Often,Sometimes,Rarely,76,12434,study,study,studdy,study,study,2501
LAE06,NO,1,14.3,5,5,3,3,4,3,0,0,0.25,0,0.25,0.25,0.25,0.25,Never,Rarely,Never,Often,Never,Never,Sometimes,Often,Sometimes,Rarely,77,23489,salad,salad,sallad,salad,salad,868
LAE06,NO,1,14.3,5,5,3,3,4,3,0,0,0.25,0,0.25,0.25,0.25,0.25,Never,Rarely,Never,Often,Never,Never,Sometimes,Often,Sometimes,Rarely,78,13085,every,evry,every,every,every,28007
LAE06,NO,1,14.3,5,5,3,3,4,3,0,0,0.25,0,0.25,0.25,0.25,0.25,Never,Rarely,Never,Often,Never,Never,Sometimes,Often,Sometimes,Rarely,79,17463,example,exsample,example,example,example,1527
LAE06,NO,1,14.3,5,5,3,3,4,3,0,0,0.25,0,0.25,0.25,0.25,0.25,Never,Rarely,Never,Often,Never,Never,Sometimes,Often,Sometimes,Rarely,80,17185,important,importent,important,important,important,10587
LAE07,NO,1,14.9,6,5,4,3,5,3,0.25,0.25,0.75,0.5,0.25,0.25,0.25,0.25,Always,Rarely,Always,Rarely,Always,Never,Always,Rarely,Often,Rarely,1,31936,distance,distence,distance,distance,distance,1306
LAE07,NO,1,14.9,6,5,4,3,5,3,0.25,0.25,0.75,0.5,0.25,0.25,0.25,0.25,Always,Rarely,Always,Rarely,Always,Never,Always,Rarely,Often,Rarely,2,17604,nuisance,nusance,nuisance,nuisance,nuisance,164
LAE07,NO,1,14.9,6,5,4,3,5,3,0.25,0.25,0.75,0.5,0.25,0.25,0.25,0.25,Always,Rarely,Always,Rarely,Always,Never,Always,Rarely,Often,Rarely,3,16318,lake,lake,laik,lake,lake,1836
LAE07,NO,1,14.9,6,5,4,3,5,3,0.25,0.25,0.75,0.5,0.25,0.25,0.25,0.25,Always,Rarely,Always,Rarely,Always,Never,Always,Rarely,Often,Rarely,4,11637,sleep,sleap,sleep,sleep,sleep,11625
LAE07,NO,1,14.9,6,5,4,3,5,3,0.25,0.25,0.75,0.5,0.25,0.25,0.25,0.25,Always,Rarely,Always,Rarely,Always,Never,Always,Rarely,Often,Rarely,5,12441,salmon,sammon,salmon,salmon,salmon,334
LAE07,NO,1,14.9,6,5,4,3,5,3,0.25,0.25,0.75,0.5,0.25,0.25,0.25,0.25,Always,Rarely,Always,Rarely,Always,Never,Always,Rarely,Often,Rarely,6,21856,take,take,taik,take,take,96443
LAE07,NO,1,14.9,6,5,4,3,5,3,0.25,0.25,0.75,0.5,0.25,0.25,0.25,0.25,Always,Rarely,Always,Rarely,Always,Never,Always,Rarely,Often,Rarely,7,19955,senators,senaters,senators,senators,senators,120
LAE07,NO,1,14.9,6,5,4,3,5,3,0.25,0.25,0.75,0.5,0.25,0.25,0.25,0.25,Always,Rarely,Always,Rarely,Always,Never,Always,Rarely,Often,Rarely,8,13404,wise,wize,wise,wise,wise,1452
LAE07,NO,1,14.9,6,5,4,3,5,3,0.25,0.25,0.75,0.5,0.25,0.25,0.25,0.25,Always,Rarely,Always,Rarely,Always,Never,Always,Rarely,Often,Rarely,9,12898,heavy,hevvy,heavy,heavy,heavy,2412
LAE07,NO,1,14.9,6,5,4,3,5,3,0.25,0.25,0.75,0.5,0.25,0.25,0.25,0.25,Always,Rarely,Always,Rarely,Always,Never,Always,Rarely,Often,Rarely,10,18119,mystery,mysterey,mystery,mystery,mystery,1171
LAE07,NO,1,14.9,6,5,4,3,5,3,0.25,0.25,0.75,0.5,0.25,0.25,0.25,0.25,Always,Rarely,Always,Rarely,Always,Never,Always,Rarely,Often,Rarely,11,24836,backwards,backwords,backwards,backwards,backwards,667
LAE07,NO,1,14.9,6,5,4,3,5,3,0.25,0.25,0.75,0.5,0.25,0.25,0.25,0.25,Always,Rarely,Always,Rarely,Always,Never,Always,Rarely,Often,Rarely,12,21977,wheat,wheet,wheat,wheat,wheat,293
LAE07,NO,1,14.9,6,5,4,3,5,3,0.25,0.25,0.75,0.5,0.25,0.25,0.25,0.25,Always,Rarely,Always,Rarely,Always,Never,Always,Rarely,Often,Rarely,13,20085,resource,resource,resourse,resource,resource,83
LAE07,NO,1,14.9,6,5,4,3,5,3,0.25,0.25,0.75,0.5,0.25,0.25,0.25,0.25,Always,Rarely,Always,Rarely,Always,Never,Always,Rarely,Often,Rarely,14,12055,choose,choose,chooze,choose,choose,2451
LAE07,NO,1,14.9,6,5,4,3,5,3,0.25,0.25,0.75,0.5,0.25,0.25,0.25,0.25,Always,Rarely,Always,Rarely,Always,Never,Always,Rarely,Often,Rarely,15,19776,purched,perched,purched,perched,perched,30
LAE07,NO,1,14.9,6,5,4,3,5,3,0.25,0.25,0.75,0.5,0.25,0.25,0.25,0.25,Always,Rarely,Always,Rarely,Always,Never,Always,Rarely,Often,Rarely,16,15541,several,several,sevral,several,several,1978
LAE07,NO,1,14.9,6,5,4,3,5,3,0.25,0.25,0.75,0.5,0.25,0.25,0.25,0.25,Always,Rarely,Always,Rarely,Always,Never,Always,Rarely,Often,Rarely,17,12293,grown,grone,grown,grown,grown,1275
LAE07,NO,1,14.9,6,5,4,3,5,3,0.25,0.25,0.75,0.5,0.25,0.25,0.25,0.25,Always,Rarely,Always,Rarely,Always,Never,Always,Rarely,Often,Rarely,18,12498,thumb,thum,thumb,thumb,thumb,603
LAE07,NO,1,14.9,6,5,4,3,5,3,0.25,0.25,0.75,0.5,0.25,0.25,0.25,0.25,Always,Rarely,Always,Rarely,Always,Never,Always,Rarely,Often,Rarely,19,10689,nice,nice,nise,nice,nice,33125
LAE07,NO,1,14.9,6,5,4,3,5,3,0.25,0.25,0.75,0.5,0.25,0.25,0.25,0.25,Always,Rarely,Always,Rarely,Always,Never,Always,Rarely,Often,Rarely,20,11063,keep,keep,keap,keep,keep,35846
LAE07,NO,1,14.9,6,5,4,3,5,3,0.25,0.25,0.75,0.5,0.25,0.25,0.25,0.25,Always,Rarely,Always,Rarely,Always,Never,Always,Rarely,Often,Rarely,21,11376,travel,travle,travel,travel,travel,1702
LAE07,NO,1,14.9,6,5,4,3,5,3,0.25,0.25,0.75,0.5,0.25,0.25,0.25,0.25,Always,Rarely,Always,Rarely,Always,Never,Always,Rarely,Often,Rarely,22,11642,every,evry,every,every,every,28007
LAE07,NO,1,14.9,6,5,4,3,5,3,0.25,0.25,0.75,0.5,0.25,0.25,0.25,0.25,Always,Rarely,Always,Rarely,Always,Never,Always,Rarely,Often,Rarely,23,12116,answer,anser,answer,answer,answer,8986
LAE07,NO,1,14.9,6,5,4,3,5,3,0.25,0.25,0.75,0.5,0.25,0.25,0.25,0.25,Always,Rarely,Always,Rarely,Always,Never,Always,Rarely,Often,Rarely,24,13767,tape,taip,tape,tape,tape,3511
LAE07,NO,1,14.9,6,5,4,3,5,3,0.25,0.25,0.75,0.5,0.25,0.25,0.25,0.25,Always,Rarely,Always,Rarely,Always,Never,Always,Rarely,Often,Rarely,25,1243,smoke,smoke,smoak,smoke,smoke,3337
LAE07,NO,1,14.9,6,5,4,3,5,3,0.25,0.25,0.75,0.5,0.25,0.25,0.25,0.25,Always,Rarely,Always,Rarely,Always,Never,Always,Rarely,Often,Rarely,26,10607,ghost,ghost,goast,ghost,ghost,1866
LAE07,NO,1,14.9,6,5,4,3,5,3,0.25,0.25,0.75,0.5,0.25,0.25,0.25,0.25,Always,Rarely,Always,Rarely,Always,Never,Always,Rarely,Often,Rarely,27,12126,salad,salad,sallad,salad,salad,868
LAE07,NO,1,14.9,6,5,4,3,5,3,0.25,0.25,0.75,0.5,0.25,0.25,0.25,0.25,Always,Rarely,Always,Rarely,Always,Never,Always,Rarely,Often,Rarely,28,9723,word,wurd,word,word,word,12013
LAE07,NO,1,14.9,6,5,4,3,5,3,0.25,0.25,0.75,0.5,0.25,0.25,0.25,0.25,Always,Rarely,Always,Rarely,Always,Never,Always,Rarely,Often,Rarely,29,25967,pavement,pavement,pavemant,pavement,pavement,103
LAE07,NO,1,14.9,6,5,4,3,5,3,0.25,0.25,0.75,0.5,0.25,0.25,0.25,0.25,Always,Rarely,Always,Rarely,Always,Never,Always,Rarely,Often,Rarely,30,11315,important,importent,important,important,important,10587
LAE07,NO,1,14.9,6,5,4,3,5,3,0.25,0.25,0.75,0.5,0.25,0.25,0.25,0.25,Always,Rarely,Always,Rarely,Always,Never,Always,Rarely,Often,Rarely,31,15414,street,streat,street,street,street,7557
LAE07,NO,1,14.9,6,5,4,3,5,3,0.25,0.25,0.75,0.5,0.25,0.25,0.25,0.25,Always,Rarely,Always,Rarely,Always,Never,Always,Rarely,Often,Rarely,32,15311,condense,condence,condense,condense,condense,14
LAE07,NO,1,14.9,6,5,4,3,5,3,0.25,0.25,0.75,0.5,0.25,0.25,0.25,0.25,Always,Rarely,Always,Rarely,Always,Never,Always,Rarely,Often,Rarely,33,12444,muscle,mussle,muscle,muscle,muscle,694
LAE07,NO,1,14.9,6,5,4,3,5,3,0.25,0.25,0.75,0.5,0.25,0.25,0.25,0.25,Always,Rarely,Always,Rarely,Always,Never,Always,Rarely,Often,Rarely,34,17733,sheep,sheep,sheap,sheep,sheep,685
LAE07,NO,1,14.9,6,5,4,3,5,3,0.25,0.25,0.75,0.5,0.25,0.25,0.25,0.25,Always,Rarely,Always,Rarely,Always,Never,Always,Rarely,Often,Rarely,35,1131,need,need,nead,need,need,66040
LAE07,NO,1,14.9,6,5,4,3,5,3,0.25,0.25,0.75,0.5,0.25,0.25,0.25,0.25,Always,Rarely,Always,Rarely,Always,Never,Always,Rarely,Often,Rarely,36,12525,please,pleese,please,please,please,56149
LAE07,NO,1,14.9,6,5,4,3,5,3,0.25,0.25,0.75,0.5,0.25,0.25,0.25,0.25,Always,Rarely,Always,Rarely,Always,Never,Always,Rarely,Often,Rarely,37,10839,wagon,wagon,wagun,wagon,wagon,906
LAE07,NO,1,14.9,6,5,4,3,5,3,0.25,0.25,0.75,0.5,0.25,0.25,0.25,0.25,Always,Rarely,Always,Rarely,Always,Never,Always,Rarely,Often,Rarely,38,17893,culprit,culpert,culprit,culprit,culprit,55
LAE07,NO,1,14.9,6,5,4,3,5,3,0.25,0.25,0.75,0.5,0.25,0.25,0.25,0.25,Always,Rarely,Always,Rarely,Always,Never,Always,Rarely,Often,Rarely,39,20614,engine,engine,enjine,engine,engine,1626
LAE07,NO,1,14.9,6,5,4,3,5,3,0.25,0.25,0.75,0.5,0.25,0.25,0.25,0.25,Always,Rarely,Always,Rarely,Always,Never,Always,Rarely,Often,Rarely,40,2245,easy,easy,eazy,easy,easy,13551
LAE07,NO,1,14.9,6,5,4,3,5,3,0.25,0.25,0.75,0.5,0.25,0.25,0.25,0.25,Always,Rarely,Always,Rarely,Always,Never,Always,Rarely,Often,Rarely,41,16294,believe,believe,beleave,believe,believe,31882
LAE07,NO,1,14.9,6,5,4,3,5,3,0.25,0.25,0.75,0.5,0.25,0.25,0.25,0.25,Always,Rarely,Always,Rarely,Always,Never,Always,Rarely,Often,Rarely,42,2428,hurt,hert,hurt,hurt,hurt,12564
LAE07,NO,1,14.9,6,5,4,3,5,3,0.25,0.25,0.75,0.5,0.25,0.25,0.25,0.25,Always,Rarely,Always,Rarely,Always,Never,Always,Rarely,Often,Rarely,43,10683,hole,hoal,hole,hole,hole,2969
LAE07,NO,1,14.9,6,5,4,3,5,3,0.25,0.25,0.75,0.5,0.25,0.25,0.25,0.25,Always,Rarely,Always,Rarely,Always,Never,Always,Rarely,Often,Rarely,44,14523,basement,baisment,basement,basement,basement,1074
LAE07,NO,1,14.9,6,5,4,3,5,3,0.25,0.25,0.75,0.5,0.25,0.25,0.25,0.25,Always,Rarely,Always,Rarely,Always,Never,Always,Rarely,Often,Rarely,45,10327,faught,fought,faught,fought,fought,1362
LAE07,NO,1,14.9,6,5,4,3,5,3,0.25,0.25,0.75,0.5,0.25,0.25,0.25,0.25,Always,Rarely,Always,Rarely,Always,Never,Always,Rarely,Often,Rarely,46,10354,study,study,studdy,study,study,2501
LAE07,NO,1,14.9,6,5,4,3,5,3,0.25,0.25,0.75,0.5,0.25,0.25,0.25,0.25,Always,Rarely,Always,Rarely,Always,Never,Always,Rarely,Often,Rarely,47,10759,example,exsample,example,example,example,1527
LAE07,NO,1,14.9,6,5,4,3,5,3,0.25,0.25,0.75,0.5,0.25,0.25,0.25,0.25,Always,Rarely,Always,Rarely,Always,Never,Always,Rarely,Often,Rarely,48,14921,toward,toward,toard,toward,toward,1169
LAE07,NO,1,14.9,6,5,4,3,5,3,0.25,0.25,0.75,0.5,0.25,0.25,0.25,0.25,Always,Rarely,Always,Rarely,Always,Never,Always,Rarely,Often,Rarely,49,9806,vero,vero,trew,vero,vero,NA
LAE07,NO,1,14.9,6,5,4,3,5,3,0.25,0.25,0.75,0.5,0.25,0.25,0.25,0.25,Always,Rarely,Always,Rarely,Always,Never,Always,Rarely,Often,Rarely,50,11005,skate,skait,skate,skate,skate,301
LAE07,NO,1,14.9,6,5,4,3,5,3,0.25,0.25,0.75,0.5,0.25,0.25,0.25,0.25,Always,Rarely,Always,Rarely,Always,Never,Always,Rarely,Often,Rarely,51,44779,nostrils,nostrels,nostrils,nostrils,nostrils,82
LAE07,NO,1,14.9,6,5,4,3,5,3,0.25,0.25,0.75,0.5,0.25,0.25,0.25,0.25,Always,Rarely,Always,Rarely,Always,Never,Always,Rarely,Often,Rarely,52,15964,dream,dreem,dream,dream,dream,6798
LAE07,NO,1,14.9,6,5,4,3,5,3,0.25,0.25,0.75,0.5,0.25,0.25,0.25,0.25,Always,Rarely,Always,Rarely,Always,Never,Always,Rarely,Often,Rarely,53,11691,applause,applause,aplause,applause,applause,576
LAE07,NO,1,14.9,6,5,4,3,5,3,0.25,0.25,0.75,0.5,0.25,0.25,0.25,0.25,Always,Rarely,Always,Rarely,Always,Never,Always,Rarely,Often,Rarely,54,16455,coat,coat,cote,coat,coat,2146
LAE07,NO,1,14.9,6,5,4,3,5,3,0.25,0.25,0.75,0.5,0.25,0.25,0.25,0.25,Always,Rarely,Always,Rarely,Always,Never,Always,Rarely,Often,Rarely,55,15404,sudden,sudden,suddin,sudden,sudden,1707
LAE07,NO,1,14.9,6,5,4,3,5,3,0.25,0.25,0.75,0.5,0.25,0.25,0.25,0.25,Always,Rarely,Always,Rarely,Always,Never,Always,Rarely,Often,Rarely,56,1684,sensitive,sensitive,sensative,sensitive,sensitive,1149
LAE07,NO,1,14.9,6,5,4,3,5,3,0.25,0.25,0.75,0.5,0.25,0.25,0.25,0.25,Always,Rarely,Always,Rarely,Always,Never,Always,Rarely,Often,Rarely,57,12922,face,face,fase,face,face,14747
LAE07,NO,1,14.9,6,5,4,3,5,3,0.25,0.25,0.75,0.5,0.25,0.25,0.25,0.25,Always,Rarely,Always,Rarely,Always,Never,Always,Rarely,Often,Rarely,58,10368,captain,captain,captin,captain,captain,10622
LAE07,NO,1,14.9,6,5,4,3,5,3,0.25,0.25,0.75,0.5,0.25,0.25,0.25,0.25,Always,Rarely,Always,Rarely,Always,Never,Always,Rarely,Often,Rarely,59,965,between,between,betwean,between,between,8932
LAE07,NO,1,14.9,6,5,4,3,5,3,0.25,0.25,0.75,0.5,0.25,0.25,0.25,0.25,Always,Rarely,Always,Rarely,Always,Never,Always,Rarely,Often,Rarely,60,23161,trousers,trousers,trowsers,trousers,trousers,263
LAE07,NO,1,14.9,6,5,4,3,5,3,0.25,0.25,0.75,0.5,0.25,0.25,0.25,0.25,Always,Rarely,Always,Rarely,Always,Never,Always,Rarely,Often,Rarely,61,9819,deep,deap,deep,deep,deep,3896
LAE07,NO,1,14.9,6,5,4,3,5,3,0.25,0.25,0.75,0.5,0.25,0.25,0.25,0.25,Always,Rarely,Always,Rarely,Always,Never,Always,Rarely,Often,Rarely,62,12686,scare,scare,scair,scare,scare,1712
LAE07,NO,1,14.9,6,5,4,3,5,3,0.25,0.25,0.75,0.5,0.25,0.25,0.25,0.25,Always,Rarely,Always,Rarely,Always,Never,Always,Rarely,Often,Rarely,63,11566,assure,assure,ashure,assure,assure,1021
LAE07,NO,1,14.9,6,5,4,3,5,3,0.25,0.25,0.75,0.5,0.25,0.25,0.25,0.25,Always,Rarely,Always,Rarely,Always,Never,Always,Rarely,Often,Rarely,64,31642,rore,roar,rore,roar,roar,205
LAE07,NO,1,14.9,6,5,4,3,5,3,0.25,0.25,0.75,0.5,0.25,0.25,0.25,0.25,Always,Rarely,Always,Rarely,Always,Never,Always,Rarely,Often,Rarely,65,13085,store,store,stoar,store,store,4178
LAE07,NO,1,14.9,6,5,4,3,5,3,0.25,0.25,0.75,0.5,0.25,0.25,0.25,0.25,Always,Rarely,Always,Rarely,Always,Never,Always,Rarely,Often,Rarely,66,11804,interesting,interesting,intresting,interesting,interesting,4421
LAE07,NO,1,14.9,6,5,4,3,5,3,0.25,0.25,0.75,0.5,0.25,0.25,0.25,0.25,Always,Rarely,Always,Rarely,Always,Never,Always,Rarely,Often,Rarely,67,47808,stream,streem,stream,stream,stream,410
LAE07,NO,1,14.9,6,5,4,3,5,3,0.25,0.25,0.75,0.5,0.25,0.25,0.25,0.25,Always,Rarely,Always,Rarely,Always,Never,Always,Rarely,Often,Rarely,68,1228,wait,wait,wate,wait,wait,42343
LAE07,NO,1,14.9,6,5,4,3,5,3,0.25,0.25,0.75,0.5,0.25,0.25,0.25,0.25,Always,Rarely,Always,Rarely,Always,Never,Always,Rarely,Often,Rarely,69,13637,alternative,alternitive,alternative,alternative,alternative,476
LAE07,NO,1,14.9,6,5,4,3,5,3,0.25,0.25,0.75,0.5,0.25,0.25,0.25,0.25,Always,Rarely,Always,Rarely,Always,Never,Always,Rarely,Often,Rarely,70,11396,few,fue,few,few,few,15393
LAE07,NO,1,14.9,6,5,4,3,5,3,0.25,0.25,0.75,0.5,0.25,0.25,0.25,0.25,Always,Rarely,Always,Rarely,Always,Never,Always,Rarely,Often,Rarely,71,9721,goat,gote,goat,goat,goat,537
LAE07,NO,1,14.9,6,5,4,3,5,3,0.25,0.25,0.75,0.5,0.25,0.25,0.25,0.25,Always,Rarely,Always,Rarely,Always,Never,Always,Rarely,Often,Rarely,72,14686,demon,demon,deamon,demon,demon,1593
LAE07,NO,1,14.9,6,5,4,3,5,3,0.25,0.25,0.75,0.5,0.25,0.25,0.25,0.25,Always,Rarely,Always,Rarely,Always,Never,Always,Rarely,Often,Rarely,73,1083,libberty,liberty,libberty,liberty,liberty,849
LAE07,NO,1,14.9,6,5,4,3,5,3,0.25,0.25,0.75,0.5,0.25,0.25,0.25,0.25,Always,Rarely,Always,Rarely,Always,Never,Always,Rarely,Often,Rarely,74,30289,rain,rain,rane,rain,rain,2494
LAE07,NO,1,14.9,6,5,4,3,5,3,0.25,0.25,0.75,0.5,0.25,0.25,0.25,0.25,Always,Rarely,Always,Rarely,Always,Never,Always,Rarely,Often,Rarely,75,16852,dignity,dignaty,dignity,dignity,dignity,551
LAE07,NO,1,14.9,6,5,4,3,5,3,0.25,0.25,0.75,0.5,0.25,0.25,0.25,0.25,Always,Rarely,Always,Rarely,Always,Never,Always,Rarely,Often,Rarely,76,10841,hearth,harth,hearth,hearth,hearth,34
LAE07,NO,1,14.9,6,5,4,3,5,3,0.25,0.25,0.75,0.5,0.25,0.25,0.25,0.25,Always,Rarely,Always,Rarely,Always,Never,Always,Rarely,Often,Rarely,77,1060,compliment,compliment,complimant,compliment,compliment,523
LAE07,NO,1,14.9,6,5,4,3,5,3,0.25,0.25,0.75,0.5,0.25,0.25,0.25,0.25,Always,Rarely,Always,Rarely,Always,Never,Always,Rarely,Often,Rarely,78,9646,learn,lurn,learn,learn,learn,6047
LAE07,NO,1,14.9,6,5,4,3,5,3,0.25,0.25,0.75,0.5,0.25,0.25,0.25,0.25,Always,Rarely,Always,Rarely,Always,Never,Always,Rarely,Often,Rarely,79,39805,wreath,wreath,reath,wreath,wreath,54
LAE07,NO,1,14.9,6,5,4,3,5,3,0.25,0.25,0.75,0.5,0.25,0.25,0.25,0.25,Always,Rarely,Always,Rarely,Always,Never,Always,Rarely,Often,Rarely,80,13019,explain,explane,explain,explain,explain,5670
LAE08,NO,1,14.11,6,4,3,4,3,3,0,0,0.25,0,0.25,0.25,0.25,0,Rarely,Sometimes,Sometimes,Sometimes,Never,Rarely,Often,Always,Sometimes,Sometimes,1,10907,vero,vero,trew,vero,vero,NA
LAE08,NO,1,14.11,6,4,3,4,3,3,0,0,0.25,0,0.25,0.25,0.25,0,Rarely,Sometimes,Sometimes,Sometimes,Never,Rarely,Often,Always,Sometimes,Sometimes,2,9713,rain,rain,rane,rain,rain,2494
LAE08,NO,1,14.11,6,4,3,4,3,3,0,0,0.25,0,0.25,0.25,0.25,0,Rarely,Sometimes,Sometimes,Sometimes,Never,Rarely,Often,Always,Sometimes,Sometimes,3,12799,smoke,smoke,smoak,smoke,smoke,3337
LAE08,NO,1,14.11,6,4,3,4,3,3,0,0,0.25,0,0.25,0.25,0.25,0,Rarely,Sometimes,Sometimes,Sometimes,Never,Rarely,Often,Always,Sometimes,Sometimes,4,8572,need,need,nead,need,need,66040
LAE08,NO,1,14.11,6,4,3,4,3,3,0,0,0.25,0,0.25,0.25,0.25,0,Rarely,Sometimes,Sometimes,Sometimes,Never,Rarely,Often,Always,Sometimes,Sometimes,5,12756,muscle,mussle,muscle,muscle,muscle,694
LAE08,NO,1,14.11,6,4,3,4,3,3,0,0,0.25,0,0.25,0.25,0.25,0,Rarely,Sometimes,Sometimes,Sometimes,Never,Rarely,Often,Always,Sometimes,Sometimes,6,18763,liberty,liberty,libberty,liberty,liberty,849
LAE08,NO,1,14.11,6,4,3,4,3,3,0,0,0.25,0,0.25,0.25,0.25,0,Rarely,Sometimes,Sometimes,Sometimes,Never,Rarely,Often,Always,Sometimes,Sometimes,7,24282,nusance,nusance,nuisance,nuisance,nuisance,164
LAE08,NO,1,14.11,6,4,3,4,3,3,0,0,0.25,0,0.25,0.25,0.25,0,Rarely,Sometimes,Sometimes,Sometimes,Never,Rarely,Often,Always,Sometimes,Sometimes,8,8728,keep,keep,keap,keep,keep,35846
LAE08,NO,1,14.11,6,4,3,4,3,3,0,0,0.25,0,0.25,0.25,0.25,0,Rarely,Sometimes,Sometimes,Sometimes,Never,Rarely,Often,Always,Sometimes,Sometimes,9,10275,believe,believe,beleave,believe,believe,31882
LAE08,NO,1,14.11,6,4,3,4,3,3,0,0,0.25,0,0.25,0.25,0.25,0,Rarely,Sometimes,Sometimes,Sometimes,Never,Rarely,Often,Always,Sometimes,Sometimes,10,1708,sudden,sudden,suddin,sudden,sudden,1707
LAE08,NO,1,14.11,6,4,3,4,3,3,0,0,0.25,0,0.25,0.25,0.25,0,Rarely,Sometimes,Sometimes,Sometimes,Never,Rarely,Often,Always,Sometimes,Sometimes,11,19087,learn,lurn,learn,learn,learn,6047
LAE08,NO,1,14.11,6,4,3,4,3,3,0,0,0.25,0,0.25,0.25,0.25,0,Rarely,Sometimes,Sometimes,Sometimes,Never,Rarely,Often,Always,Sometimes,Sometimes,12,16193,ghost,ghost,goast,ghost,ghost,1866
LAE08,NO,1,14.11,6,4,3,4,3,3,0,0,0.25,0,0.25,0.25,0.25,0,Rarely,Sometimes,Sometimes,Sometimes,Never,Rarely,Often,Always,Sometimes,Sometimes,13,45883,dignity,dignaty,dignity,dignity,dignity,551
LAE08,NO,1,14.11,6,4,3,4,3,3,0,0,0.25,0,0.25,0.25,0.25,0,Rarely,Sometimes,Sometimes,Sometimes,Never,Rarely,Often,Always,Sometimes,Sometimes,14,14918,please,pleese,please,please,please,56149
LAE08,NO,1,14.11,6,4,3,4,3,3,0,0,0.25,0,0.25,0.25,0.25,0,Rarely,Sometimes,Sometimes,Sometimes,Never,Rarely,Often,Always,Sometimes,Sometimes,15,24997,travel,travle,travel,travel,travel,1702
LAE08,NO,1,14.11,6,4,3,4,3,3,0,0,0.25,0,0.25,0.25,0.25,0,Rarely,Sometimes,Sometimes,Sometimes,Never,Rarely,Often,Always,Sometimes,Sometimes,16,40681,hearth,harth,hearth,hearth,hearth,34
LAE08,NO,1,14.11,6,4,3,4,3,3,0,0,0.25,0,0.25,0.25,0.25,0,Rarely,Sometimes,Sometimes,Sometimes,Never,Rarely,Often,Always,Sometimes,Sometimes,17,30049,assure,assure,ashure,assure,assure,1021
LAE08,NO,1,14.11,6,4,3,4,3,3,0,0,0.25,0,0.25,0.25,0.25,0,Rarely,Sometimes,Sometimes,Sometimes,Never,Rarely,Often,Always,Sometimes,Sometimes,18,23315,distance,distence,distance,distance,distance,1306
LAE08,NO,1,14.11,6,4,3,4,3,3,0,0,0.25,0,0.25,0.25,0.25,0,Rarely,Sometimes,Sometimes,Sometimes,Never,Rarely,Often,Always,Sometimes,Sometimes,19,11565,deep,deap,deep,deep,deep,3896
LAE08,NO,1,14.11,6,4,3,4,3,3,0,0,0.25,0,0.25,0.25,0.25,0,Rarely,Sometimes,Sometimes,Sometimes,Never,Rarely,Often,Always,Sometimes,Sometimes,20,12918,salmon,sammon,salmon,salmon,salmon,334
LAE08,NO,1,14.11,6,4,3,4,3,3,0,0,0.25,0,0.25,0.25,0.25,0,Rarely,Sometimes,Sometimes,Sometimes,Never,Rarely,Often,Always,Sometimes,Sometimes,21,14274,study,study,studdy,study,study,2501
LAE08,NO,1,14.11,6,4,3,4,3,3,0,0,0.25,0,0.25,0.25,0.25,0,Rarely,Sometimes,Sometimes,Sometimes,Never,Rarely,Often,Always,Sometimes,Sometimes,22,26294,demon,demon,deamon,demon,demon,1593
LAE08,NO,1,14.11,6,4,3,4,3,3,0,0,0.25,0,0.25,0.25,0.25,0,Rarely,Sometimes,Sometimes,Sometimes,Never,Rarely,Often,Always,Sometimes,Sometimes,23,30928,sensitive,sensitive,sensative,sensitive,sensitive,1149
LAE08,NO,1,14.11,6,4,3,4,3,3,0,0,0.25,0,0.25,0.25,0.25,0,Rarely,Sometimes,Sometimes,Sometimes,Never,Rarely,Often,Always,Sometimes,Sometimes,24,1604,word,wurd,word,word,word,12013
LAE08,NO,1,14.11,6,4,3,4,3,3,0,0,0.25,0,0.25,0.25,0.25,0,Rarely,Sometimes,Sometimes,Sometimes,Never,Rarely,Often,Always,Sometimes,Sometimes,25,27721,trousers,trousers,trowsers,trousers,trousers,263
LAE08,NO,1,14.11,6,4,3,4,3,3,0,0,0.25,0,0.25,0.25,0.25,0,Rarely,Sometimes,Sometimes,Sometimes,Never,Rarely,Often,Always,Sometimes,Sometimes,26,13866,hole,hoal,hole,hole,hole,2969
LAE08,NO,1,14.11,6,4,3,4,3,3,0,0,0.25,0,0.25,0.25,0.25,0,Rarely,Sometimes,Sometimes,Sometimes,Never,Rarely,Often,Always,Sometimes,Sometimes,27,12432,every,evry,every,every,every,28007
LAE08,NO,1,14.11,6,4,3,4,3,3,0,0,0.25,0,0.25,0.25,0.25,0,Rarely,Sometimes,Sometimes,Sometimes,Never,Rarely,Often,Always,Sometimes,Sometimes,28,26279,senators,senaters,senators,senators,senators,120
LAE08,NO,1,14.11,6,4,3,4,3,3,0,0,0.25,0,0.25,0.25,0.25,0,Rarely,Sometimes,Sometimes,Sometimes,Never,Rarely,Often,Always,Sometimes,Sometimes,29,21245,sleep,sleap,sleep,sleep,sleep,11625
LAE08,NO,1,14.11,6,4,3,4,3,3,0,0,0.25,0,0.25,0.25,0.25,0,Rarely,Sometimes,Sometimes,Sometimes,Never,Rarely,Often,Always,Sometimes,Sometimes,30,16998,wait,wait,wate,wait,wait,42343
LAE08,NO,1,14.11,6,4,3,4,3,3,0,0,0.25,0,0.25,0.25,0.25,0,Rarely,Sometimes,Sometimes,Sometimes,Never,Rarely,Often,Always,Sometimes,Sometimes,31,11955,easy,easy,eazy,easy,easy,13551
LAE08,NO,1,14.11,6,4,3,4,3,3,0,0,0.25,0,0.25,0.25,0.25,0,Rarely,Sometimes,Sometimes,Sometimes,Never,Rarely,Often,Always,Sometimes,Sometimes,32,25636,nostrels,nostrels,nostrils,nostrils,nostrils,82
LAE08,NO,1,14.11,6,4,3,4,3,3,0,0,0.25,0,0.25,0.25,0.25,0,Rarely,Sometimes,Sometimes,Sometimes,Never,Rarely,Often,Always,Sometimes,Sometimes,33,13408,answer,anser,answer,answer,answer,8986
LAE08,NO,1,14.11,6,4,3,4,3,3,0,0,0.25,0,0.25,0.25,0.25,0,Rarely,Sometimes,Sometimes,Sometimes,Never,Rarely,Often,Always,Sometimes,Sometimes,34,19638,tape,taip,tape,tape,tape,3511
LAE08,NO,1,14.11,6,4,3,4,3,3,0,0,0.25,0,0.25,0.25,0.25,0,Rarely,Sometimes,Sometimes,Sometimes,Never,Rarely,Often,Always,Sometimes,Sometimes,35,30685,toward,toward,toard,toward,toward,1169
LAE08,NO,1,14.11,6,4,3,4,3,3,0,0,0.25,0,0.25,0.25,0.25,0,Rarely,Sometimes,Sometimes,Sometimes,Never,Rarely,Often,Always,Sometimes,Sometimes,36,25952,backwords,backwords,backwards,backwards,backwards,667
LAE08,NO,1,14.11,6,4,3,4,3,3,0,0,0.25,0,0.25,0.25,0.25,0,Rarely,Sometimes,Sometimes,Sometimes,Never,Rarely,Often,Always,Sometimes,Sometimes,37,23482,thumb,thum,thumb,thumb,thumb,603
LAE08,NO,1,14.11,6,4,3,4,3,3,0,0,0.25,0,0.25,0.25,0.25,0,Rarely,Sometimes,Sometimes,Sometimes,Never,Rarely,Often,Always,Sometimes,Sometimes,38,3308,condence,condence,condense,condense,condense,14
LAE08,NO,1,14.11,6,4,3,4,3,3,0,0,0.25,0,0.25,0.25,0.25,0,Rarely,Sometimes,Sometimes,Sometimes,Never,Rarely,Often,Always,Sometimes,Sometimes,39,10603,face,face,fase,face,face,14747
LAE08,NO,1,14.11,6,4,3,4,3,3,0,0,0.25,0,0.25,0.25,0.25,0,Rarely,Sometimes,Sometimes,Sometimes,Never,Rarely,Often,Always,Sometimes,Sometimes,40,15322,engine,engine,enjine,engine,engine,1626
LAE08,NO,1,14.11,6,4,3,4,3,3,0,0,0.25,0,0.25,0.25,0.25,0,Rarely,Sometimes,Sometimes,Sometimes,Never,Rarely,Often,Always,Sometimes,Sometimes,41,27966,explain,explane,explain,explain,explain,5670
LAE08,NO,1,14.11,6,4,3,4,3,3,0,0,0.25,0,0.25,0.25,0.25,0,Rarely,Sometimes,Sometimes,Sometimes,Never,Rarely,Often,Always,Sometimes,Sometimes,42,33392,culpert,culpert,culprit,culprit,culprit,55
LAE08,NO,1,14.11,6,4,3,4,3,3,0,0,0.25,0,0.25,0.25,0.25,0,Rarely,Sometimes,Sometimes,Sometimes,Never,Rarely,Often,Always,Sometimes,Sometimes,43,18122,coat,coat,cote,coat,coat,2146
LAE08,NO,1,14.11,6,4,3,4,3,3,0,0,0.25,0,0.25,0.25,0.25,0,Rarely,Sometimes,Sometimes,Sometimes,Never,Rarely,Often,Always,Sometimes,Sometimes,44,14671,wagon,wagon,wagun,wagon,wagon,906
LAE08,NO,1,14.11,6,4,3,4,3,3,0,0,0.25,0,0.25,0.25,0.25,0,Rarely,Sometimes,Sometimes,Sometimes,Never,Rarely,Often,Always,Sometimes,Sometimes,45,14873,dreem,dreem,dream,dream,dream,6798
LAE08,NO,1,14.11,6,4,3,4,3,3,0,0,0.25,0,0.25,0.25,0.25,0,Rarely,Sometimes,Sometimes,Sometimes,Never,Rarely,Often,Always,Sometimes,Sometimes,46,24041,stream,streem,stream,stream,stream,410
LAE08,NO,1,14.11,6,4,3,4,3,3,0,0,0.25,0,0.25,0.25,0.25,0,Rarely,Sometimes,Sometimes,Sometimes,Never,Rarely,Often,Always,Sometimes,Sometimes,47,11807,lake,lake,laik,lake,lake,1836
LAE08,NO,1,14.11,6,4,3,4,3,3,0,0,0.25,0,0.25,0.25,0.25,0,Rarely,Sometimes,Sometimes,Sometimes,Never,Rarely,Often,Always,Sometimes,Sometimes,48,17409,mystery,mysterey,mystery,mystery,mystery,1171
LAE08,NO,1,14.11,6,4,3,4,3,3,0,0,0.25,0,0.25,0.25,0.25,0,Rarely,Sometimes,Sometimes,Sometimes,Never,Rarely,Often,Always,Sometimes,Sometimes,49,22925,wheat,wheet,wheat,wheat,wheat,293
LAE08,NO,1,14.11,6,4,3,4,3,3,0,0,0.25,0,0.25,0.25,0.25,0,Rarely,Sometimes,Sometimes,Sometimes,Never,Rarely,Often,Always,Sometimes,Sometimes,50,18924,compliment,compliment,complimant,compliment,compliment,523
LAE08,NO,1,14.11,6,4,3,4,3,3,0,0,0.25,0,0.25,0.25,0.25,0,Rarely,Sometimes,Sometimes,Sometimes,Never,Rarely,Often,Always,Sometimes,Sometimes,51,13403,example,exsample,example,example,example,1527
LAE08,NO,1,14.11,6,4,3,4,3,3,0,0,0.25,0,0.25,0.25,0.25,0,Rarely,Sometimes,Sometimes,Sometimes,Never,Rarely,Often,Always,Sometimes,Sometimes,52,27086,applause,applause,aplause,applause,applause,576
LAE08,NO,1,14.11,6,4,3,4,3,3,0,0,0.25,0,0.25,0.25,0.25,0,Rarely,Sometimes,Sometimes,Sometimes,Never,Rarely,Often,Always,Sometimes,Sometimes,53,16917,several,several,sevral,several,several,1978
LAE08,NO,1,14.11,6,4,3,4,3,3,0,0,0.25,0,0.25,0.25,0.25,0,Rarely,Sometimes,Sometimes,Sometimes,Never,Rarely,Often,Always,Sometimes,Sometimes,54,65559,interesting,interesting,intresting,interesting,interesting,4421
LAE08,NO,1,14.11,6,4,3,4,3,3,0,0,0.25,0,0.25,0.25,0.25,0,Rarely,Sometimes,Sometimes,Sometimes,Never,Rarely,Often,Always,Sometimes,Sometimes,55,14842,wize,wize,wise,wise,wise,1452
LAE08,NO,1,14.11,6,4,3,4,3,3,0,0,0.25,0,0.25,0.25,0.25,0,Rarely,Sometimes,Sometimes,Sometimes,Never,Rarely,Often,Always,Sometimes,Sometimes,56,18122,scare,scare,scair,scare,scare,1712
LAE08,NO,1,14.11,6,4,3,4,3,3,0,0,0.25,0,0.25,0.25,0.25,0,Rarely,Sometimes,Sometimes,Sometimes,Never,Rarely,Often,Always,Sometimes,Sometimes,57,36846,fought,fought,faught,fought,fought,1362
LAE08,NO,1,14.11,6,4,3,4,3,3,0,0,0.25,0,0.25,0.25,0.25,0,Rarely,Sometimes,Sometimes,Sometimes,Never,Rarely,Often,Always,Sometimes,Sometimes,58,15559,salad,salad,sallad,salad,salad,868
LAE08,NO,1,14.11,6,4,3,4,3,3,0,0,0.25,0,0.25,0.25,0.25,0,Rarely,Sometimes,Sometimes,Sometimes,Never,Rarely,Often,Always,Sometimes,Sometimes,59,19006,resource,resource,resourse,resource,resource,83
LAE08,NO,1,14.11,6,4,3,4,3,3,0,0,0.25,0,0.25,0.25,0.25,0,Rarely,Sometimes,Sometimes,Sometimes,Never,Rarely,Often,Always,Sometimes,Sometimes,60,10836,store,store,stoar,store,store,4178
LAE08,NO,1,14.11,6,4,3,4,3,3,0,0,0.25,0,0.25,0.25,0.25,0,Rarely,Sometimes,Sometimes,Sometimes,Never,Rarely,Often,Always,Sometimes,Sometimes,61,23793,important,importent,important,important,important,10587
LAE08,NO,1,14.11,6,4,3,4,3,3,0,0,0.25,0,0.25,0.25,0.25,0,Rarely,Sometimes,Sometimes,Sometimes,Never,Rarely,Often,Always,Sometimes,Sometimes,62,11937,take,take,taik,take,take,96443
