ID,diagnosis,class,age,AoO,english_hours_week,speaking,understanding,reading,writing,speak_daily,list_daily,read_daily,write_daily,speak_school,list_school,read_school,write_school,books_en,articles_en,comics_en,posts_en,subt_en,books_it,articles_it,comics_it,posts_it,subt_it,trial_number,reaction_time,response,target,frequency,read.en,eng.use,accuracy,accuracy_tot,mean.rt
LAE02,NO,1,14.2,6,4,3,4,3,4,0.25,0.25,0.25,0.25,0.25,0.25,0.25,0.25,0,2,0,3,1,4,2,1,2,3,1,13395,interesting,interesting,4421,1.2,0.25,1,70,14064.042857142857
LAE02,NO,1,14.2,6,4,3,4,3,4,0.25,0.25,0.25,0.25,0.25,0.25,0.25,0.25,0,2,0,3,1,4,2,1,2,3,2,13234,example,example,1527,1.2,0.25,1,70,14064.042857142857
LAE02,NO,1,14.2,6,4,3,4,3,4,0.25,0.25,0.25,0.25,0.25,0.25,0.25,0.25,0,2,0,3,1,4,2,1,2,3,3,10645,wheat,wheat,293,1.2,0.25,1,70,14064.042857142857
LAE02,NO,1,14.2,6,4,3,4,3,4,0.25,0.25,0.25,0.25,0.25,0.25,0.25,0.25,0,2,0,3,1,4,2,1,2,3,4,15926,believe,believe,31882,1.2,0.25,1,70,14064.042857142857
LAE02,NO,1,14.2,6,4,3,4,3,4,0.25,0.25,0.25,0.25,0.25,0.25,0.25,0.25,0,2,0,3,1,4,2,1,2,3,5,14282,deep,deep,3896,1.2,0.25,1,70,14064.042857142857
LAE02,NO,1,14.2,6,4,3,4,3,4,0.25,0.25,0.25,0.25,0.25,0.25,0.25,0.25,0,2,0,3,1,4,2,1,2,3,6,13235,scare,scare,1712,1.2,0.25,1,70,14064.042857142857
LAE02,NO,1,14.2,6,4,3,4,3,4,0.25,0.25,0.25,0.25,0.25,0.25,0.25,0.25,0,2,0,3,1,4,2,1,2,3,7,11877,salad,salad,868,1.2,0.25,1,70,14064.042857142857
LAE02,NO,1,14.2,6,4,3,4,3,4,0.25,0.25,0.25,0.25,0.25,0.25,0.25,0.25,0,2,0,3,1,4,2,1,2,3,8,11556,sudden,sudden,1707,1.2,0.25,1,70,14064.042857142857
LAE02,NO,1,14.2,6,4,3,4,3,4,0.25,0.25,0.25,0.25,0.25,0.25,0.25,0.25,0,2,0,3,1,4,2,1,2,3,9,1183,sheep,sheep,685,1.2,0.25,1,70,14064.042857142857
LAE02,NO,1,14.2,6,4,3,4,3,4,0.25,0.25,0.25,0.25,0.25,0.25,0.25,0.25,0,2,0,3,1,4,2,1,2,3,10,16836,assure,assure,1021,1.2,0.25,1,70,14064.042857142857
LAE02,NO,1,14.2,6,4,3,4,3,4,0.25,0.25,0.25,0.25,0.25,0.25,0.25,0.25,0,2,0,3,1,4,2,1,2,3,11,14834,please,please,56149,1.2,0.25,1,70,14064.042857142857
LAE02,NO,1,14.2,6,4,3,4,3,4,0.25,0.25,0.25,0.25,0.25,0.25,0.25,0.25,0,2,0,3,1,4,2,1,2,3,12,12684,between,between,8932,1.2,0.25,1,70,14064.042857142857
LAE02,NO,1,14.2,6,4,3,4,3,4,0.25,0.25,0.25,0.25,0.25,0.25,0.25,0.25,0,2,0,3,1,4,2,1,2,3,13,13378,roar,roar,205,1.2,0.25,1,70,14064.042857142857
LAE02,NO,1,14.2,6,4,3,4,3,4,0.25,0.25,0.25,0.25,0.25,0.25,0.25,0.25,0,2,0,3,1,4,2,1,2,3,14,13078,nice,nice,33125,1.2,0.25,1,70,14064.042857142857
LAE02,NO,1,14.2,6,4,3,4,3,4,0.25,0.25,0.25,0.25,0.25,0.25,0.25,0.25,0,2,0,3,1,4,2,1,2,3,15,16686,nusance,nuisance,164,1.2,0.25,0,70,14064.042857142857
LAE02,NO,1,14.2,6,4,3,4,3,4,0.25,0.25,0.25,0.25,0.25,0.25,0.25,0.25,0,2,0,3,1,4,2,1,2,3,16,15081,hearth,hearth,34,1.2,0.25,1,70,14064.042857142857
LAE02,NO,1,14.2,6,4,3,4,3,4,0.25,0.25,0.25,0.25,0.25,0.25,0.25,0.25,0,2,0,3,1,4,2,1,2,3,17,15403,several,several,1978,1.2,0.25,1,70,14064.042857142857
LAE02,NO,1,14.2,6,4,3,4,3,4,0.25,0.25,0.25,0.25,0.25,0.25,0.25,0.25,0,2,0,3,1,4,2,1,2,3,18,1492,lake,lake,1836,1.2,0.25,1,70,14064.042857142857
LAE02,NO,1,14.2,6,4,3,4,3,4,0.25,0.25,0.25,0.25,0.25,0.25,0.25,0.25,0,2,0,3,1,4,2,1,2,3,19,16449,important,important,10587,1.2,0.25,1,70,14064.042857142857
LAE02,NO,1,14.2,6,4,3,4,3,4,0.25,0.25,0.25,0.25,0.25,0.25,0.25,0.25,0,2,0,3,1,4,2,1,2,3,20,20846,thumb,thumb,603,1.2,0.25,1,70,14064.042857142857
LAE02,NO,1,14.2,6,4,3,4,3,4,0.25,0.25,0.25,0.25,0.25,0.25,0.25,0.25,0,2,0,3,1,4,2,1,2,3,21,13399,hurt,hurt,12564,1.2,0.25,1,70,14064.042857142857
LAE02,NO,1,14.2,6,4,3,4,3,4,0.25,0.25,0.25,0.25,0.25,0.25,0.25,0.25,0,2,0,3,1,4,2,1,2,3,22,13483,every,every,28007,1.2,0.25,1,70,14064.042857142857
LAE02,NO,1,14.2,6,4,3,4,3,4,0.25,0.25,0.25,0.25,0.25,0.25,0.25,0.25,0,2,0,3,1,4,2,1,2,3,23,13554,demon,demon,1593,1.2,0.25,1,70,14064.042857142857
LAE02,NO,1,14.2,6,4,3,4,3,4,0.25,0.25,0.25,0.25,0.25,0.25,0.25,0.25,0,2,0,3,1,4,2,1,2,3,24,13412,basement,basement,1074,1.2,0.25,1,70,14064.042857142857
LAE02,NO,1,14.2,6,4,3,4,3,4,0.25,0.25,0.25,0.25,0.25,0.25,0.25,0.25,0,2,0,3,1,4,2,1,2,3,25,14522,heavy,heavy,2412,1.2,0.25,1,70,14064.042857142857
LAE02,NO,1,14.2,6,4,3,4,3,4,0.25,0.25,0.25,0.25,0.25,0.25,0.25,0.25,0,2,0,3,1,4,2,1,2,3,26,17404,senators,senators,120,1.2,0.25,1,70,14064.042857142857
LAE02,NO,1,14.2,6,4,3,4,3,4,0.25,0.25,0.25,0.25,0.25,0.25,0.25,0.25,0,2,0,3,1,4,2,1,2,3,27,37487,resourse,resource,83,1.2,0.25,0,70,14064.042857142857
LAE02,NO,1,14.2,6,4,3,4,3,4,0.25,0.25,0.25,0.25,0.25,0.25,0.25,0.25,0,2,0,3,1,4,2,1,2,3,28,2484,purched,perched,30,1.2,0.25,0,70,14064.042857142857
LAE02,NO,1,14.2,6,4,3,4,3,4,0.25,0.25,0.25,0.25,0.25,0.25,0.25,0.25,0,2,0,3,1,4,2,1,2,3,29,13645,compliment,compliment,523,1.2,0.25,1,70,14064.042857142857
LAE02,NO,1,14.2,6,4,3,4,3,4,0.25,0.25,0.25,0.25,0.25,0.25,0.25,0.25,0,2,0,3,1,4,2,1,2,3,30,18195,applause,applause,576,1.2,0.25,1,70,14064.042857142857
LAE02,NO,1,14.2,6,4,3,4,3,4,0.25,0.25,0.25,0.25,0.25,0.25,0.25,0.25,0,2,0,3,1,4,2,1,2,3,31,14221,distance,distance,1306,1.2,0.25,1,70,14064.042857142857
LAE02,NO,1,14.2,6,4,3,4,3,4,0.25,0.25,0.25,0.25,0.25,0.25,0.25,0.25,0,2,0,3,1,4,2,1,2,3,32,15572,rain,rain,2494,1.2,0.25,1,70,14064.042857142857
LAE02,NO,1,14.2,6,4,3,4,3,4,0.25,0.25,0.25,0.25,0.25,0.25,0.25,0.25,0,2,0,3,1,4,2,1,2,3,33,13719,sleep,sleep,11625,1.2,0.25,1,70,14064.042857142857
LAE02,NO,1,14.2,6,4,3,4,3,4,0.25,0.25,0.25,0.25,0.25,0.25,0.25,0.25,0,2,0,3,1,4,2,1,2,3,34,15732,trousers,trousers,263,1.2,0.25,1,70,14064.042857142857
LAE02,NO,1,14.2,6,4,3,4,3,4,0.25,0.25,0.25,0.25,0.25,0.25,0.25,0.25,0,2,0,3,1,4,2,1,2,3,35,12864,study,study,2501,1.2,0.25,1,70,14064.042857142857
LAE02,NO,1,14.2,6,4,3,4,3,4,0.25,0.25,0.25,0.25,0.25,0.25,0.25,0.25,0,2,0,3,1,4,2,1,2,3,36,17217,nostrels,nostrils,82,1.2,0.25,0,70,14064.042857142857
LAE02,NO,1,14.2,6,4,3,4,3,4,0.25,0.25,0.25,0.25,0.25,0.25,0.25,0.25,0,2,0,3,1,4,2,1,2,3,37,1740,sensitive,sensitive,1149,1.2,0.25,1,70,14064.042857142857
LAE02,NO,1,14.2,6,4,3,4,3,4,0.25,0.25,0.25,0.25,0.25,0.25,0.25,0.25,0,2,0,3,1,4,2,1,2,3,38,15801,captain,captain,10622,1.2,0.25,1,70,14064.042857142857
LAE02,NO,1,14.2,6,4,3,4,3,4,0.25,0.25,0.25,0.25,0.25,0.25,0.25,0.25,0,2,0,3,1,4,2,1,2,3,39,21397,hole,hole,2969,1.2,0.25,1,70,14064.042857142857
LAE02,NO,1,14.2,6,4,3,4,3,4,0.25,0.25,0.25,0.25,0.25,0.25,0.25,0.25,0,2,0,3,1,4,2,1,2,3,40,12529,easy,easy,13551,1.2,0.25,1,70,14064.042857142857
LAE02,NO,1,14.2,6,4,3,4,3,4,0.25,0.25,0.25,0.25,0.25,0.25,0.25,0.25,0,2,0,3,1,4,2,1,2,3,41,22282,mystery,mystery,1171,1.2,0.25,1,70,14064.042857142857
LAE02,NO,1,14.2,6,4,3,4,3,4,0.25,0.25,0.25,0.25,0.25,0.25,0.25,0.25,0,2,0,3,1,4,2,1,2,3,42,15794,dream,dream,6798,1.2,0.25,1,70,14064.042857142857
LAE02,NO,1,14.2,6,4,3,4,3,4,0.25,0.25,0.25,0.25,0.25,0.25,0.25,0.25,0,2,0,3,1,4,2,1,2,3,43,15647,street,street,7557,1.2,0.25,1,70,14064.042857142857
LAE02,NO,1,14.2,6,4,3,4,3,4,0.25,0.25,0.25,0.25,0.25,0.25,0.25,0.25,0,2,0,3,1,4,2,1,2,3,44,13168,travel,travel,1702,1.2,0.25,1,70,14064.042857142857
LAE02,NO,1,14.2,6,4,3,4,3,4,0.25,0.25,0.25,0.25,0.25,0.25,0.25,0.25,0,2,0,3,1,4,2,1,2,3,45,11642,tape,tape,3511,1.2,0.25,1,70,14064.042857142857
LAE02,NO,1,14.2,6,4,3,4,3,4,0.25,0.25,0.25,0.25,0.25,0.25,0.25,0.25,0,2,0,3,1,4,2,1,2,3,46,16659,toward,toward,1169,1.2,0.25,1,70,14064.042857142857
LAE02,NO,1,14.2,6,4,3,4,3,4,0.25,0.25,0.25,0.25,0.25,0.25,0.25,0.25,0,2,0,3,1,4,2,1,2,3,47,13805,dignaty,dignity,551,1.2,0.25,0,70,14064.042857142857
LAE02,NO,1,14.2,6,4,3,4,3,4,0.25,0.25,0.25,0.25,0.25,0.25,0.25,0.25,0,2,0,3,1,4,2,1,2,3,48,25238,coat,coat,2146,1.2,0.25,1,70,14064.042857142857
LAE02,NO,1,14.2,6,4,3,4,3,4,0.25,0.25,0.25,0.25,0.25,0.25,0.25,0.25,0,2,0,3,1,4,2,1,2,3,49,23083,fought,fought,1362,1.2,0.25,1,70,14064.042857142857
LAE02,NO,1,14.2,6,4,3,4,3,4,0.25,0.25,0.25,0.25,0.25,0.25,0.25,0.25,0,2,0,3,1,4,2,1,2,3,50,19307,need,need,66040,1.2,0.25,1,70,14064.042857142857
LAE02,NO,1,14.2,6,4,3,4,3,4,0.25,0.25,0.25,0.25,0.25,0.25,0.25,0.25,0,2,0,3,1,4,2,1,2,3,51,13053,wait,wait,42343,1.2,0.25,1,70,14064.042857142857
LAE02,NO,1,14.2,6,4,3,4,3,4,0.25,0.25,0.25,0.25,0.25,0.25,0.25,0.25,0,2,0,3,1,4,2,1,2,3,52,1834,condence,condense,14,1.2,0.25,0,70,14064.042857142857
LAE02,NO,1,14.2,6,4,3,4,3,4,0.25,0.25,0.25,0.25,0.25,0.25,0.25,0.25,0,2,0,3,1,4,2,1,2,3,53,1371,engine,engine,1626,1.2,0.25,1,70,14064.042857142857
LAE02,NO,1,14.2,6,4,3,4,3,4,0.25,0.25,0.25,0.25,0.25,0.25,0.25,0.25,0,2,0,3,1,4,2,1,2,3,54,27771,wize,wise,1452,1.2,0.25,0,70,14064.042857142857
LAE02,NO,1,14.2,6,4,3,4,3,4,0.25,0.25,0.25,0.25,0.25,0.25,0.25,0.25,0,2,0,3,1,4,2,1,2,3,55,14528,few,few,15393,1.2,0.25,1,70,14064.042857142857
LAE02,NO,1,14.2,6,4,3,4,3,4,0.25,0.25,0.25,0.25,0.25,0.25,0.25,0.25,0,2,0,3,1,4,2,1,2,3,56,13004,liberty,liberty,849,1.2,0.25,1,70,14064.042857142857
LAE02,NO,1,14.2,6,4,3,4,3,4,0.25,0.25,0.25,0.25,0.25,0.25,0.25,0.25,0,2,0,3,1,4,2,1,2,3,57,9799,ghost,ghost,1866,1.2,0.25,1,70,14064.042857142857
LAE02,NO,1,14.2,6,4,3,4,3,4,0.25,0.25,0.25,0.25,0.25,0.25,0.25,0.25,0,2,0,3,1,4,2,1,2,3,58,17959,backwords,backwards,667,1.2,0.25,0,70,14064.042857142857
LAE02,NO,1,14.2,6,4,3,4,3,4,0.25,0.25,0.25,0.25,0.25,0.25,0.25,0.25,0,2,0,3,1,4,2,1,2,3,59,18435,take,take,96443,1.2,0.25,1,70,14064.042857142857
LAE02,NO,1,14.2,6,4,3,4,3,4,0.25,0.25,0.25,0.25,0.25,0.25,0.25,0.25,0,2,0,3,1,4,2,1,2,3,60,13157,vero,vero,NA,1.2,0.25,1,70,14064.042857142857
LAE02,NO,1,14.2,6,4,3,4,3,4,0.25,0.25,0.25,0.25,0.25,0.25,0.25,0.25,0,2,0,3,1,4,2,1,2,3,61,1109,face,face,14747,1.2,0.25,1,70,14064.042857142857
LAE02,NO,1,14.2,6,4,3,4,3,4,0.25,0.25,0.25,0.25,0.25,0.25,0.25,0.25,0,2,0,3,1,4,2,1,2,3,62,25009,culpert,culprit,55,1.2,0.25,0,70,14064.042857142857
LAE02,NO,1,14.2,6,4,3,4,3,4,0.25,0.25,0.25,0.25,0.25,0.25,0.25,0.25,0,2,0,3,1,4,2,1,2,3,63,2893,wagun,wagon,906,1.2,0.25,0,70,14064.042857142857
LAE02,NO,1,14.2,6,4,3,4,3,4,0.25,0.25,0.25,0.25,0.25,0.25,0.25,0.25,0,2,0,3,1,4,2,1,2,3,64,16048,explain,explain,5670,1.2,0.25,1,70,14064.042857142857
LAE02,NO,1,14.2,6,4,3,4,3,4,0.25,0.25,0.25,0.25,0.25,0.25,0.25,0.25,0,2,0,3,1,4,2,1,2,3,65,15641,learn,learn,6047,1.2,0.25,1,70,14064.042857142857
LAE02,NO,1,14.2,6,4,3,4,3,4,0.25,0.25,0.25,0.25,0.25,0.25,0.25,0.25,0,2,0,3,1,4,2,1,2,3,66,13142,grown,grown,1275,1.2,0.25,1,70,14064.042857142857
LAE02,NO,1,14.2,6,4,3,4,3,4,0.25,0.25,0.25,0.25,0.25,0.25,0.25,0.25,0,2,0,3,1,4,2,1,2,3,67,18847,goat,goat,537,1.2,0.25,1,70,14064.042857142857
LAE02,NO,1,14.2,6,4,3,4,3,4,0.25,0.25,0.25,0.25,0.25,0.25,0.25,0.25,0,2,0,3,1,4,2,1,2,3,68,18894,smoke,smoke,3337,1.2,0.25,1,70,14064.042857142857
LAE02,NO,1,14.2,6,4,3,4,3,4,0.25,0.25,0.25,0.25,0.25,0.25,0.25,0.25,0,2,0,3,1,4,2,1,2,3,69,22846,wreath,wreath,54,1.2,0.25,1,70,14064.042857142857
LAE02,NO,1,14.2,6,4,3,4,3,4,0.25,0.25,0.25,0.25,0.25,0.25,0.25,0.25,0,2,0,3,1,4,2,1,2,3,70,14131,word,word,12013,1.2,0.25,1,70,14064.042857142857
LAE02,NO,1,14.2,6,4,3,4,3,4,0.25,0.25,0.25,0.25,0.25,0.25,0.25,0.25,0,2,0,3,1,4,2,1,2,3,71,12919,skate,skate,301,1.2,0.25,1,70,14064.042857142857
LAE02,NO,1,14.2,6,4,3,4,3,4,0.25,0.25,0.25,0.25,0.25,0.25,0.25,0.25,0,2,0,3,1,4,2,1,2,3,72,11474,keep,keep,35846,1.2,0.25,1,70,14064.042857142857
LAE02,NO,1,14.2,6,4,3,4,3,4,0.25,0.25,0.25,0.25,0.25,0.25,0.25,0.25,0,2,0,3,1,4,2,1,2,3,73,21314,stream,stream,410,1.2,0.25,1,70,14064.042857142857
LAE02,NO,1,14.2,6,4,3,4,3,4,0.25,0.25,0.25,0.25,0.25,0.25,0.25,0.25,0,2,0,3,1,4,2,1,2,3,74,11543,answer,answer,8986,1.2,0.25,1,70,14064.042857142857
LAE02,NO,1,14.2,6,4,3,4,3,4,0.25,0.25,0.25,0.25,0.25,0.25,0.25,0.25,0,2,0,3,1,4,2,1,2,3,75,11802,salmon,salmon,334,1.2,0.25,1,70,14064.042857142857
LAE02,NO,1,14.2,6,4,3,4,3,4,0.25,0.25,0.25,0.25,0.25,0.25,0.25,0.25,0,2,0,3,1,4,2,1,2,3,76,1700,store,store,4178,1.2,0.25,1,70,14064.042857142857
LAE02,NO,1,14.2,6,4,3,4,3,4,0.25,0.25,0.25,0.25,0.25,0.25,0.25,0.25,0,2,0,3,1,4,2,1,2,3,77,11305,choose,choose,2451,1.2,0.25,1,70,14064.042857142857
LAE02,NO,1,14.2,6,4,3,4,3,4,0.25,0.25,0.25,0.25,0.25,0.25,0.25,0.25,0,2,0,3,1,4,2,1,2,3,78,1292,muscle,muscle,694,1.2,0.25,1,70,14064.042857142857
LAE02,NO,1,14.2,6,4,3,4,3,4,0.25,0.25,0.25,0.25,0.25,0.25,0.25,0.25,0,2,0,3,1,4,2,1,2,3,79,10282,alternative,alternative,476,1.2,0.25,1,70,14064.042857142857
LAE02,NO,1,14.2,6,4,3,4,3,4,0.25,0.25,0.25,0.25,0.25,0.25,0.25,0.25,0,2,0,3,1,4,2,1,2,3,80,37424,pavement,pavement,103,1.2,0.25,1,70,14064.042857142857
LAE03,NO,1,14.6,5,4,4,3,5,4,0,0,0.25,0,0.75,0.75,0.5,0.5,0,1,0,2,0,2,3,0,2,1,1,18264,few,few,15393,0.6,0.34375,1,73,15536.575342465754
LAE03,NO,1,14.6,5,4,4,3,5,4,0,0,0.25,0,0.75,0.75,0.5,0.5,0,1,0,2,0,2,3,0,2,1,2,11952,study,study,2501,0.6,0.34375,1,73,15536.575342465754
LAE03,NO,1,14.6,5,4,4,3,5,4,0,0,0.25,0,0.75,0.75,0.5,0.5,0,1,0,2,0,2,3,0,2,1,3,18078,sevral,several,1978,0.6,0.34375,0,73,15536.575342465754
LAE03,NO,1,14.6,5,4,4,3,5,4,0,0,0.25,0,0.75,0.75,0.5,0.5,0,1,0,2,0,2,3,0,2,1,4,16172,ghost,ghost,1866,0.6,0.34375,1,73,15536.575342465754
LAE03,NO,1,14.6,5,4,4,3,5,4,0,0,0.25,0,0.75,0.75,0.5,0.5,0,1,0,2,0,2,3,0,2,1,5,13559,believe,believe,31882,0.6,0.34375,1,73,15536.575342465754
LAE03,NO,1,14.6,5,4,4,3,5,4,0,0,0.25,0,0.75,0.75,0.5,0.5,0,1,0,2,0,2,3,0,2,1,6,20363,toward,toward,1169,0.6,0.34375,1,73,15536.575342465754
LAE03,NO,1,14.6,5,4,4,3,5,4,0,0,0.25,0,0.75,0.75,0.5,0.5,0,1,0,2,0,2,3,0,2,1,7,13002,choose,choose,2451,0.6,0.34375,1,73,15536.575342465754
LAE03,NO,1,14.6,5,4,4,3,5,4,0,0,0.25,0,0.75,0.75,0.5,0.5,0,1,0,2,0,2,3,0,2,1,8,1732,word,word,12013,0.6,0.34375,1,73,15536.575342465754
LAE03,NO,1,14.6,5,4,4,3,5,4,0,0,0.25,0,0.75,0.75,0.5,0.5,0,1,0,2,0,2,3,0,2,1,9,12125,need,need,66040,0.6,0.34375,1,73,15536.575342465754
LAE03,NO,1,14.6,5,4,4,3,5,4,0,0,0.25,0,0.75,0.75,0.5,0.5,0,1,0,2,0,2,3,0,2,1,10,15166,basement,basement,1074,0.6,0.34375,1,73,15536.575342465754
LAE03,NO,1,14.6,5,4,4,3,5,4,0,0,0.25,0,0.75,0.75,0.5,0.5,0,1,0,2,0,2,3,0,2,1,11,13453,hurt,hurt,12564,0.6,0.34375,1,73,15536.575342465754
LAE03,NO,1,14.6,5,4,4,3,5,4,0,0,0.25,0,0.75,0.75,0.5,0.5,0,1,0,2,0,2,3,0,2,1,12,14927,please,please,56149,0.6,0.34375,1,73,15536.575342465754
LAE03,NO,1,14.6,5,4,4,3,5,4,0,0,0.25,0,0.75,0.75,0.5,0.5,0,1,0,2,0,2,3,0,2,1,13,13173,rain,rain,2494,0.6,0.34375,1,73,15536.575342465754
LAE03,NO,1,14.6,5,4,4,3,5,4,0,0,0.25,0,0.75,0.75,0.5,0.5,0,1,0,2,0,2,3,0,2,1,14,1181,vero,vero,NA,0.6,0.34375,1,73,15536.575342465754
LAE03,NO,1,14.6,5,4,4,3,5,4,0,0,0.25,0,0.75,0.75,0.5,0.5,0,1,0,2,0,2,3,0,2,1,15,11236,salad,salad,868,0.6,0.34375,1,73,15536.575342465754
LAE03,NO,1,14.6,5,4,4,3,5,4,0,0,0.25,0,0.75,0.75,0.5,0.5,0,1,0,2,0,2,3,0,2,1,16,13324,trousers,trousers,263,0.6,0.34375,1,73,15536.575342465754
LAE03,NO,1,14.6,5,4,4,3,5,4,0,0,0.25,0,0.75,0.75,0.5,0.5,0,1,0,2,0,2,3,0,2,1,17,29992,pavement,pavement,103,0.6,0.34375,1,73,15536.575342465754
LAE03,NO,1,14.6,5,4,4,3,5,4,0,0,0.25,0,0.75,0.75,0.5,0.5,0,1,0,2,0,2,3,0,2,1,18,11738,wait,wait,42343,0.6,0.34375,1,73,15536.575342465754
LAE03,NO,1,14.6,5,4,4,3,5,4,0,0,0.25,0,0.75,0.75,0.5,0.5,0,1,0,2,0,2,3,0,2,1,19,23833,fought,fought,1362,0.6,0.34375,1,73,15536.575342465754
LAE03,NO,1,14.6,5,4,4,3,5,4,0,0,0.25,0,0.75,0.75,0.5,0.5,0,1,0,2,0,2,3,0,2,1,20,21415,answer,answer,8986,0.6,0.34375,1,73,15536.575342465754
LAE03,NO,1,14.6,5,4,4,3,5,4,0,0,0.25,0,0.75,0.75,0.5,0.5,0,1,0,2,0,2,3,0,2,1,21,19935,nuisance,nuisance,164,0.6,0.34375,1,73,15536.575342465754
LAE03,NO,1,14.6,5,4,4,3,5,4,0,0,0.25,0,0.75,0.75,0.5,0.5,0,1,0,2,0,2,3,0,2,1,22,16485,salmon,salmon,334,0.6,0.34375,1,73,15536.575342465754
LAE03,NO,1,14.6,5,4,4,3,5,4,0,0,0.25,0,0.75,0.75,0.5,0.5,0,1,0,2,0,2,3,0,2,1,23,19171,stream,stream,410,0.6,0.34375,1,73,15536.575342465754
LAE03,NO,1,14.6,5,4,4,3,5,4,0,0,0.25,0,0.75,0.75,0.5,0.5,0,1,0,2,0,2,3,0,2,1,24,13145,liberty,liberty,849,0.6,0.34375,1,73,15536.575342465754
LAE03,NO,1,14.6,5,4,4,3,5,4,0,0,0.25,0,0.75,0.75,0.5,0.5,0,1,0,2,0,2,3,0,2,1,25,14411,grown,grown,1275,0.6,0.34375,1,73,15536.575342465754
LAE03,NO,1,14.6,5,4,4,3,5,4,0,0,0.25,0,0.75,0.75,0.5,0.5,0,1,0,2,0,2,3,0,2,1,26,8685,sleep,sleep,11625,0.6,0.34375,1,73,15536.575342465754
LAE03,NO,1,14.6,5,4,4,3,5,4,0,0,0.25,0,0.75,0.75,0.5,0.5,0,1,0,2,0,2,3,0,2,1,27,2420,wheat,wheat,293,0.6,0.34375,1,73,15536.575342465754
LAE03,NO,1,14.6,5,4,4,3,5,4,0,0,0.25,0,0.75,0.75,0.5,0.5,0,1,0,2,0,2,3,0,2,1,28,1385,hearth,hearth,34,0.6,0.34375,1,73,15536.575342465754
LAE03,NO,1,14.6,5,4,4,3,5,4,0,0,0.25,0,0.75,0.75,0.5,0.5,0,1,0,2,0,2,3,0,2,1,29,13636,dignity,dignity,551,0.6,0.34375,1,73,15536.575342465754
LAE03,NO,1,14.6,5,4,4,3,5,4,0,0,0.25,0,0.75,0.75,0.5,0.5,0,1,0,2,0,2,3,0,2,1,30,20768,applause,applause,576,0.6,0.34375,1,73,15536.575342465754
LAE03,NO,1,14.6,5,4,4,3,5,4,0,0,0.25,0,0.75,0.75,0.5,0.5,0,1,0,2,0,2,3,0,2,1,31,11004,smoke,smoke,3337,0.6,0.34375,1,73,15536.575342465754
LAE03,NO,1,14.6,5,4,4,3,5,4,0,0,0.25,0,0.75,0.75,0.5,0.5,0,1,0,2,0,2,3,0,2,1,32,19777,wreath,wreath,54,0.6,0.34375,1,73,15536.575342465754
LAE03,NO,1,14.6,5,4,4,3,5,4,0,0,0.25,0,0.75,0.75,0.5,0.5,0,1,0,2,0,2,3,0,2,1,33,37492,wise,wise,1452,0.6,0.34375,1,73,15536.575342465754
LAE03,NO,1,14.6,5,4,4,3,5,4,0,0,0.25,0,0.75,0.75,0.5,0.5,0,1,0,2,0,2,3,0,2,1,34,1314,hole,hole,2969,0.6,0.34375,1,73,15536.575342465754
LAE03,NO,1,14.6,5,4,4,3,5,4,0,0,0.25,0,0.75,0.75,0.5,0.5,0,1,0,2,0,2,3,0,2,1,35,14973,roar,roar,205,0.6,0.34375,1,73,15536.575342465754
LAE03,NO,1,14.6,5,4,4,3,5,4,0,0,0.25,0,0.75,0.75,0.5,0.5,0,1,0,2,0,2,3,0,2,1,36,18425,assure,assure,1021,0.6,0.34375,1,73,15536.575342465754
LAE03,NO,1,14.6,5,4,4,3,5,4,0,0,0.25,0,0.75,0.75,0.5,0.5,0,1,0,2,0,2,3,0,2,1,37,11722,lake,lake,1836,0.6,0.34375,1,73,15536.575342465754
LAE03,NO,1,14.6,5,4,4,3,5,4,0,0,0.25,0,0.75,0.75,0.5,0.5,0,1,0,2,0,2,3,0,2,1,38,21414,sudden,sudden,1707,0.6,0.34375,1,73,15536.575342465754
LAE03,NO,1,14.6,5,4,4,3,5,4,0,0,0.25,0,0.75,0.75,0.5,0.5,0,1,0,2,0,2,3,0,2,1,39,13952,every,every,28007,0.6,0.34375,1,73,15536.575342465754
LAE03,NO,1,14.6,5,4,4,3,5,4,0,0,0.25,0,0.75,0.75,0.5,0.5,0,1,0,2,0,2,3,0,2,1,40,30448,alternative,alternative,476,0.6,0.34375,1,73,15536.575342465754
LAE03,NO,1,14.6,5,4,4,3,5,4,0,0,0.25,0,0.75,0.75,0.5,0.5,0,1,0,2,0,2,3,0,2,1,41,16526,nice,nice,33125,0.6,0.34375,1,73,15536.575342465754
LAE03,NO,1,14.6,5,4,4,3,5,4,0,0,0.25,0,0.75,0.75,0.5,0.5,0,1,0,2,0,2,3,0,2,1,42,18515,compliment,compliment,523,0.6,0.34375,1,73,15536.575342465754
LAE03,NO,1,14.6,5,4,4,3,5,4,0,0,0.25,0,0.75,0.75,0.5,0.5,0,1,0,2,0,2,3,0,2,1,43,16676,distance,distance,1306,0.6,0.34375,1,73,15536.575342465754
LAE03,NO,1,14.6,5,4,4,3,5,4,0,0,0.25,0,0.75,0.75,0.5,0.5,0,1,0,2,0,2,3,0,2,1,44,20586,interesting,interesting,4421,0.6,0.34375,1,73,15536.575342465754
LAE03,NO,1,14.6,5,4,4,3,5,4,0,0,0.25,0,0.75,0.75,0.5,0.5,0,1,0,2,0,2,3,0,2,1,45,12126,learn,learn,6047,0.6,0.34375,1,73,15536.575342465754
LAE03,NO,1,14.6,5,4,4,3,5,4,0,0,0.25,0,0.75,0.75,0.5,0.5,0,1,0,2,0,2,3,0,2,1,46,13401,example,example,1527,0.6,0.34375,1,73,15536.575342465754
LAE03,NO,1,14.6,5,4,4,3,5,4,0,0,0.25,0,0.75,0.75,0.5,0.5,0,1,0,2,0,2,3,0,2,1,47,11583,easy,easy,13551,0.6,0.34375,1,73,15536.575342465754
LAE03,NO,1,14.6,5,4,4,3,5,4,0,0,0.25,0,0.75,0.75,0.5,0.5,0,1,0,2,0,2,3,0,2,1,48,11282,sheep,sheep,685,0.6,0.34375,1,73,15536.575342465754
LAE03,NO,1,14.6,5,4,4,3,5,4,0,0,0.25,0,0.75,0.75,0.5,0.5,0,1,0,2,0,2,3,0,2,1,49,28628,thum,thumb,603,0.6,0.34375,0,73,15536.575342465754
LAE03,NO,1,14.6,5,4,4,3,5,4,0,0,0.25,0,0.75,0.75,0.5,0.5,0,1,0,2,0,2,3,0,2,1,50,23089,dream,dream,6798,0.6,0.34375,1,73,15536.575342465754
LAE03,NO,1,14.6,5,4,4,3,5,4,0,0,0.25,0,0.75,0.75,0.5,0.5,0,1,0,2,0,2,3,0,2,1,51,19642,muscle,muscle,694,0.6,0.34375,1,73,15536.575342465754
LAE03,NO,1,14.6,5,4,4,3,5,4,0,0,0.25,0,0.75,0.75,0.5,0.5,0,1,0,2,0,2,3,0,2,1,52,22355,condence,condense,14,0.6,0.34375,0,73,15536.575342465754
LAE03,NO,1,14.6,5,4,4,3,5,4,0,0,0.25,0,0.75,0.75,0.5,0.5,0,1,0,2,0,2,3,0,2,1,53,45797,senators,senators,120,0.6,0.34375,1,73,15536.575342465754
LAE03,NO,1,14.6,5,4,4,3,5,4,0,0,0.25,0,0.75,0.75,0.5,0.5,0,1,0,2,0,2,3,0,2,1,54,15843,important,important,10587,0.6,0.34375,1,73,15536.575342465754
LAE03,NO,1,14.6,5,4,4,3,5,4,0,0,0.25,0,0.75,0.75,0.5,0.5,0,1,0,2,0,2,3,0,2,1,55,12137,street,street,7557,0.6,0.34375,1,73,15536.575342465754
LAE03,NO,1,14.6,5,4,4,3,5,4,0,0,0.25,0,0.75,0.75,0.5,0.5,0,1,0,2,0,2,3,0,2,1,56,30823,captain,captain,10622,0.6,0.34375,1,73,15536.575342465754
LAE03,NO,1,14.6,5,4,4,3,5,4,0,0,0.25,0,0.75,0.75,0.5,0.5,0,1,0,2,0,2,3,0,2,1,57,16509,purched,perched,30,0.6,0.34375,0,73,15536.575342465754
LAE03,NO,1,14.6,5,4,4,3,5,4,0,0,0.25,0,0.75,0.75,0.5,0.5,0,1,0,2,0,2,3,0,2,1,58,13663,keep,keep,35846,0.6,0.34375,1,73,15536.575342465754
LAE03,NO,1,14.6,5,4,4,3,5,4,0,0,0.25,0,0.75,0.75,0.5,0.5,0,1,0,2,0,2,3,0,2,1,59,9527,store,store,4178,0.6,0.34375,1,73,15536.575342465754
LAE03,NO,1,14.6,5,4,4,3,5,4,0,0,0.25,0,0.75,0.75,0.5,0.5,0,1,0,2,0,2,3,0,2,1,60,12847,face,face,14747,0.6,0.34375,1,73,15536.575342465754
LAE03,NO,1,14.6,5,4,4,3,5,4,0,0,0.25,0,0.75,0.75,0.5,0.5,0,1,0,2,0,2,3,0,2,1,61,14124,tape,tape,3511,0.6,0.34375,1,73,15536.575342465754
LAE03,NO,1,14.6,5,4,4,3,5,4,0,0,0.25,0,0.75,0.75,0.5,0.5,0,1,0,2,0,2,3,0,2,1,62,26841,mystery,mystery,1171,0.6,0.34375,1,73,15536.575342465754
LAE03,NO,1,14.6,5,4,4,3,5,4,0,0,0.25,0,0.75,0.75,0.5,0.5,0,1,0,2,0,2,3,0,2,1,63,36591,nostrels,nostrils,82,0.6,0.34375,0,73,15536.575342465754
LAE03,NO,1,14.6,5,4,4,3,5,4,0,0,0.25,0,0.75,0.75,0.5,0.5,0,1,0,2,0,2,3,0,2,1,64,13448,engine,engine,1626,0.6,0.34375,1,73,15536.575342465754
LAE03,NO,1,14.6,5,4,4,3,5,4,0,0,0.25,0,0.75,0.75,0.5,0.5,0,1,0,2,0,2,3,0,2,1,65,13164,between,between,8932,0.6,0.34375,1,73,15536.575342465754
LAE03,NO,1,14.6,5,4,4,3,5,4,0,0,0.25,0,0.75,0.75,0.5,0.5,0,1,0,2,0,2,3,0,2,1,66,20679,culpert,culprit,55,0.6,0.34375,0,73,15536.575342465754
LAE03,NO,1,14.6,5,4,4,3,5,4,0,0,0.25,0,0.75,0.75,0.5,0.5,0,1,0,2,0,2,3,0,2,1,67,13168,deep,deep,3896,0.6,0.34375,1,73,15536.575342465754
LAE03,NO,1,14.6,5,4,4,3,5,4,0,0,0.25,0,0.75,0.75,0.5,0.5,0,1,0,2,0,2,3,0,2,1,68,10838,goat,goat,537,0.6,0.34375,1,73,15536.575342465754
LAE03,NO,1,14.6,5,4,4,3,5,4,0,0,0.25,0,0.75,0.75,0.5,0.5,0,1,0,2,0,2,3,0,2,1,69,11932,travel,travel,1702,0.6,0.34375,1,73,15536.575342465754
LAE03,NO,1,14.6,5,4,4,3,5,4,0,0,0.25,0,0.75,0.75,0.5,0.5,0,1,0,2,0,2,3,0,2,1,70,1223,explain,explain,5670,0.6,0.34375,1,73,15536.575342465754
LAE03,NO,1,14.6,5,4,4,3,5,4,0,0,0.25,0,0.75,0.75,0.5,0.5,0,1,0,2,0,2,3,0,2,1,71,12447,resource,resource,83,0.6,0.34375,1,73,15536.575342465754
LAE03,NO,1,14.6,5,4,4,3,5,4,0,0,0.25,0,0.75,0.75,0.5,0.5,0,1,0,2,0,2,3,0,2,1,72,19701,backwords,backwards,667,0.6,0.34375,0,73,15536.575342465754
LAE03,NO,1,14.6,5,4,4,3,5,4,0,0,0.25,0,0.75,0.75,0.5,0.5,0,1,0,2,0,2,3,0,2,1,73,17085,scare,scare,1712,0.6,0.34375,1,73,15536.575342465754
LAE03,NO,1,14.6,5,4,4,3,5,4,0,0,0.25,0,0.75,0.75,0.5,0.5,0,1,0,2,0,2,3,0,2,1,74,13237,heavy,heavy,2412,0.6,0.34375,1,73,15536.575342465754
LAE03,NO,1,14.6,5,4,4,3,5,4,0,0,0.25,0,0.75,0.75,0.5,0.5,0,1,0,2,0,2,3,0,2,1,75,11638,skate,skate,301,0.6,0.34375,1,73,15536.575342465754
LAE03,NO,1,14.6,5,4,4,3,5,4,0,0,0.25,0,0.75,0.75,0.5,0.5,0,1,0,2,0,2,3,0,2,1,76,12115,coat,coat,2146,0.6,0.34375,1,73,15536.575342465754
LAE03,NO,1,14.6,5,4,4,3,5,4,0,0,0.25,0,0.75,0.75,0.5,0.5,0,1,0,2,0,2,3,0,2,1,77,13163,sensitive,sensitive,1149,0.6,0.34375,1,73,15536.575342465754
LAE03,NO,1,14.6,5,4,4,3,5,4,0,0,0.25,0,0.75,0.75,0.5,0.5,0,1,0,2,0,2,3,0,2,1,78,37005,wagon,wagon,906,0.6,0.34375,1,73,15536.575342465754
LAE03,NO,1,14.6,5,4,4,3,5,4,0,0,0.25,0,0.75,0.75,0.5,0.5,0,1,0,2,0,2,3,0,2,1,79,20298,demon,demon,1593,0.6,0.34375,1,73,15536.575342465754
LAE03,NO,1,14.6,5,4,4,3,5,4,0,0,0.25,0,0.75,0.75,0.5,0.5,0,1,0,2,0,2,3,0,2,1,80,1212,take,take,96443,0.6,0.34375,1,73,15536.575342465754
LAE04,YES,4,18.7,4,4,3,5,5,4,0.25,0.25,0.75,0.25,0.25,0.25,0.25,0.5,0,2,3,4,4,0,1,1,2,0,1,15077,compliment,compliment,523,2.6,0.34375,1,80,12534.125
LAE04,YES,4,18.7,4,4,3,5,5,4,0.25,0.25,0.75,0.25,0.25,0.25,0.25,0.5,0,2,3,4,4,0,1,1,2,0,2,14753,perched,perched,30,2.6,0.34375,1,80,12534.125
LAE04,YES,4,18.7,4,4,3,5,5,4,0.25,0.25,0.75,0.25,0.25,0.25,0.25,0.5,0,2,3,4,4,0,1,1,2,0,3,12894,believe,believe,31882,2.6,0.34375,1,80,12534.125
LAE04,YES,4,18.7,4,4,3,5,5,4,0.25,0.25,0.75,0.25,0.25,0.25,0.25,0.5,0,2,3,4,4,0,1,1,2,0,4,12277,salad,salad,868,2.6,0.34375,1,80,12534.125
LAE04,YES,4,18.7,4,4,3,5,5,4,0.25,0.25,0.75,0.25,0.25,0.25,0.25,0.5,0,2,3,4,4,0,1,1,2,0,5,11075,roar,roar,205,2.6,0.34375,1,80,12534.125
LAE04,YES,4,18.7,4,4,3,5,5,4,0.25,0.25,0.75,0.25,0.25,0.25,0.25,0.5,0,2,3,4,4,0,1,1,2,0,6,11181,word,word,12013,2.6,0.34375,1,80,12534.125
LAE04,YES,4,18.7,4,4,3,5,5,4,0.25,0.25,0.75,0.25,0.25,0.25,0.25,0.5,0,2,3,4,4,0,1,1,2,0,7,11696,study,study,2501,2.6,0.34375,1,80,12534.125
LAE04,YES,4,18.7,4,4,3,5,5,4,0.25,0.25,0.75,0.25,0.25,0.25,0.25,0.5,0,2,3,4,4,0,1,1,2,0,8,11969,pavement,pavement,103,2.6,0.34375,1,80,12534.125
LAE04,YES,4,18.7,4,4,3,5,5,4,0.25,0.25,0.75,0.25,0.25,0.25,0.25,0.5,0,2,3,4,4,0,1,1,2,0,9,11447,wagon,wagon,906,2.6,0.34375,1,80,12534.125
LAE04,YES,4,18.7,4,4,3,5,5,4,0.25,0.25,0.75,0.25,0.25,0.25,0.25,0.5,0,2,3,4,4,0,1,1,2,0,10,11941,important,important,10587,2.6,0.34375,1,80,12534.125
LAE04,YES,4,18.7,4,4,3,5,5,4,0.25,0.25,0.75,0.25,0.25,0.25,0.25,0.5,0,2,3,4,4,0,1,1,2,0,11,20651,liberty,liberty,849,2.6,0.34375,1,80,12534.125
LAE04,YES,4,18.7,4,4,3,5,5,4,0.25,0.25,0.75,0.25,0.25,0.25,0.25,0.5,0,2,3,4,4,0,1,1,2,0,12,13079,several,several,1978,2.6,0.34375,1,80,12534.125
LAE04,YES,4,18.7,4,4,3,5,5,4,0.25,0.25,0.75,0.25,0.25,0.25,0.25,0.5,0,2,3,4,4,0,1,1,2,0,13,10592,face,face,14747,2.6,0.34375,1,80,12534.125
LAE04,YES,4,18.7,4,4,3,5,5,4,0.25,0.25,0.75,0.25,0.25,0.25,0.25,0.5,0,2,3,4,4,0,1,1,2,0,14,15289,few,few,15393,2.6,0.34375,1,80,12534.125
LAE04,YES,4,18.7,4,4,3,5,5,4,0.25,0.25,0.75,0.25,0.25,0.25,0.25,0.5,0,2,3,4,4,0,1,1,2,0,15,19409,resource,resource,83,2.6,0.34375,1,80,12534.125
LAE04,YES,4,18.7,4,4,3,5,5,4,0.25,0.25,0.75,0.25,0.25,0.25,0.25,0.5,0,2,3,4,4,0,1,1,2,0,16,13486,distance,distance,1306,2.6,0.34375,1,80,12534.125
LAE04,YES,4,18.7,4,4,3,5,5,4,0.25,0.25,0.75,0.25,0.25,0.25,0.25,0.5,0,2,3,4,4,0,1,1,2,0,17,15598,alternative,alternative,476,2.6,0.34375,1,80,12534.125
LAE04,YES,4,18.7,4,4,3,5,5,4,0.25,0.25,0.75,0.25,0.25,0.25,0.25,0.5,0,2,3,4,4,0,1,1,2,0,18,16835,every,every,28007,2.6,0.34375,1,80,12534.125
LAE04,YES,4,18.7,4,4,3,5,5,4,0.25,0.25,0.75,0.25,0.25,0.25,0.25,0.5,0,2,3,4,4,0,1,1,2,0,19,11568,thumb,thumb,603,2.6,0.34375,1,80,12534.125
LAE04,YES,4,18.7,4,4,3,5,5,4,0.25,0.25,0.75,0.25,0.25,0.25,0.25,0.5,0,2,3,4,4,0,1,1,2,0,20,10581,smoke,smoke,3337,2.6,0.34375,1,80,12534.125
LAE04,YES,4,18.7,4,4,3,5,5,4,0.25,0.25,0.75,0.25,0.25,0.25,0.25,0.5,0,2,3,4,4,0,1,1,2,0,21,12023,keep,keep,35846,2.6,0.34375,1,80,12534.125
LAE04,YES,4,18.7,4,4,3,5,5,4,0.25,0.25,0.75,0.25,0.25,0.25,0.25,0.5,0,2,3,4,4,0,1,1,2,0,22,10604,hurt,hurt,12564,2.6,0.34375,1,80,12534.125
LAE04,YES,4,18.7,4,4,3,5,5,4,0.25,0.25,0.75,0.25,0.25,0.25,0.25,0.5,0,2,3,4,4,0,1,1,2,0,23,11811,basement,basement,1074,2.6,0.34375,1,80,12534.125
LAE04,YES,4,18.7,4,4,3,5,5,4,0.25,0.25,0.75,0.25,0.25,0.25,0.25,0.5,0,2,3,4,4,0,1,1,2,0,24,10505,tape,tape,3511,2.6,0.34375,1,80,12534.125
LAE04,YES,4,18.7,4,4,3,5,5,4,0.25,0.25,0.75,0.25,0.25,0.25,0.25,0.5,0,2,3,4,4,0,1,1,2,0,25,11385,deep,deep,3896,2.6,0.34375,1,80,12534.125
LAE04,YES,4,18.7,4,4,3,5,5,4,0.25,0.25,0.75,0.25,0.25,0.25,0.25,0.5,0,2,3,4,4,0,1,1,2,0,26,11372,learn,learn,6047,2.6,0.34375,1,80,12534.125
LAE04,YES,4,18.7,4,4,3,5,5,4,0.25,0.25,0.75,0.25,0.25,0.25,0.25,0.5,0,2,3,4,4,0,1,1,2,0,27,10878,demon,demon,1593,2.6,0.34375,1,80,12534.125
LAE04,YES,4,18.7,4,4,3,5,5,4,0.25,0.25,0.75,0.25,0.25,0.25,0.25,0.5,0,2,3,4,4,0,1,1,2,0,28,11967,goat,goat,537,2.6,0.34375,1,80,12534.125
LAE04,YES,4,18.7,4,4,3,5,5,4,0.25,0.25,0.75,0.25,0.25,0.25,0.25,0.5,0,2,3,4,4,0,1,1,2,0,29,12598,rain,rain,2494,2.6,0.34375,1,80,12534.125
LAE04,YES,4,18.7,4,4,3,5,5,4,0.25,0.25,0.75,0.25,0.25,0.25,0.25,0.5,0,2,3,4,4,0,1,1,2,0,30,12205,answer,answer,8986,2.6,0.34375,1,80,12534.125
LAE04,YES,4,18.7,4,4,3,5,5,4,0.25,0.25,0.75,0.25,0.25,0.25,0.25,0.5,0,2,3,4,4,0,1,1,2,0,31,11126,assure,assure,1021,2.6,0.34375,1,80,12534.125
LAE04,YES,4,18.7,4,4,3,5,5,4,0.25,0.25,0.75,0.25,0.25,0.25,0.25,0.5,0,2,3,4,4,0,1,1,2,0,32,12038,wheat,wheat,293,2.6,0.34375,1,80,12534.125
LAE04,YES,4,18.7,4,4,3,5,5,4,0.25,0.25,0.75,0.25,0.25,0.25,0.25,0.5,0,2,3,4,4,0,1,1,2,0,33,11411,grown,grown,1275,2.6,0.34375,1,80,12534.125
LAE04,YES,4,18.7,4,4,3,5,5,4,0.25,0.25,0.75,0.25,0.25,0.25,0.25,0.5,0,2,3,4,4,0,1,1,2,0,34,11229,explain,explain,5670,2.6,0.34375,1,80,12534.125
LAE04,YES,4,18.7,4,4,3,5,5,4,0.25,0.25,0.75,0.25,0.25,0.25,0.25,0.5,0,2,3,4,4,0,1,1,2,0,35,11127,trousers,trousers,263,2.6,0.34375,1,80,12534.125
LAE04,YES,4,18.7,4,4,3,5,5,4,0.25,0.25,0.75,0.25,0.25,0.25,0.25,0.5,0,2,3,4,4,0,1,1,2,0,36,11565,example,example,1527,2.6,0.34375,1,80,12534.125
LAE04,YES,4,18.7,4,4,3,5,5,4,0.25,0.25,0.75,0.25,0.25,0.25,0.25,0.5,0,2,3,4,4,0,1,1,2,0,37,12633,wreath,wreath,54,2.6,0.34375,1,80,12534.125
LAE04,YES,4,18.7,4,4,3,5,5,4,0.25,0.25,0.75,0.25,0.25,0.25,0.25,0.5,0,2,3,4,4,0,1,1,2,0,38,3316,take,take,96443,2.6,0.34375,1,80,12534.125
LAE04,YES,4,18.7,4,4,3,5,5,4,0.25,0.25,0.75,0.25,0.25,0.25,0.25,0.5,0,2,3,4,4,0,1,1,2,0,39,35722,street,street,7557,2.6,0.34375,1,80,12534.125
LAE04,YES,4,18.7,4,4,3,5,5,4,0.25,0.25,0.75,0.25,0.25,0.25,0.25,0.5,0,2,3,4,4,0,1,1,2,0,40,19483,captain,captain,10622,2.6,0.34375,1,80,12534.125
LAE04,YES,4,18.7,4,4,3,5,5,4,0.25,0.25,0.75,0.25,0.25,0.25,0.25,0.5,0,2,3,4,4,0,1,1,2,0,41,16766,vero,vero,NA,2.6,0.34375,1,80,12534.125
LAE04,YES,4,18.7,4,4,3,5,5,4,0.25,0.25,0.75,0.25,0.25,0.25,0.25,0.5,0,2,3,4,4,0,1,1,2,0,42,10998,travel,travel,1702,2.6,0.34375,1,80,12534.125
LAE04,YES,4,18.7,4,4,3,5,5,4,0.25,0.25,0.75,0.25,0.25,0.25,0.25,0.5,0,2,3,4,4,0,1,1,2,0,43,14665,hearth,hearth,34,2.6,0.34375,1,80,12534.125
LAE04,YES,4,18.7,4,4,3,5,5,4,0.25,0.25,0.75,0.25,0.25,0.25,0.25,0.5,0,2,3,4,4,0,1,1,2,0,44,10727,nice,nice,33125,2.6,0.34375,1,80,12534.125
LAE04,YES,4,18.7,4,4,3,5,5,4,0.25,0.25,0.75,0.25,0.25,0.25,0.25,0.5,0,2,3,4,4,0,1,1,2,0,45,15796,coat,coat,2146,2.6,0.34375,1,80,12534.125
LAE04,YES,4,18.7,4,4,3,5,5,4,0.25,0.25,0.75,0.25,0.25,0.25,0.25,0.5,0,2,3,4,4,0,1,1,2,0,46,16132,toward,toward,1169,2.6,0.34375,1,80,12534.125
LAE04,YES,4,18.7,4,4,3,5,5,4,0.25,0.25,0.75,0.25,0.25,0.25,0.25,0.5,0,2,3,4,4,0,1,1,2,0,47,14455,between,between,8932,2.6,0.34375,1,80,12534.125
LAE04,YES,4,18.7,4,4,3,5,5,4,0.25,0.25,0.75,0.25,0.25,0.25,0.25,0.5,0,2,3,4,4,0,1,1,2,0,48,10281,choose,choose,2451,2.6,0.34375,1,80,12534.125
LAE04,YES,4,18.7,4,4,3,5,5,4,0.25,0.25,0.75,0.25,0.25,0.25,0.25,0.5,0,2,3,4,4,0,1,1,2,0,49,10441,scare,scare,1712,2.6,0.34375,1,80,12534.125
LAE04,YES,4,18.7,4,4,3,5,5,4,0.25,0.25,0.75,0.25,0.25,0.25,0.25,0.5,0,2,3,4,4,0,1,1,2,0,50,9303,wise,wise,1452,2.6,0.34375,1,80,12534.125
LAE04,YES,4,18.7,4,4,3,5,5,4,0.25,0.25,0.75,0.25,0.25,0.25,0.25,0.5,0,2,3,4,4,0,1,1,2,0,51,8915,lake,lake,1836,2.6,0.34375,1,80,12534.125
LAE04,YES,4,18.7,4,4,3,5,5,4,0.25,0.25,0.75,0.25,0.25,0.25,0.25,0.5,0,2,3,4,4,0,1,1,2,0,52,9298,mystery,mystery,1171,2.6,0.34375,1,80,12534.125
LAE04,YES,4,18.7,4,4,3,5,5,4,0.25,0.25,0.75,0.25,0.25,0.25,0.25,0.5,0,2,3,4,4,0,1,1,2,0,53,11149,culprit,culprit,55,2.6,0.34375,1,80,12534.125
LAE04,YES,4,18.7,4,4,3,5,5,4,0.25,0.25,0.75,0.25,0.25,0.25,0.25,0.5,0,2,3,4,4,0,1,1,2,0,54,10098,sleep,sleep,11625,2.6,0.34375,1,80,12534.125
LAE04,YES,4,18.7,4,4,3,5,5,4,0.25,0.25,0.75,0.25,0.25,0.25,0.25,0.5,0,2,3,4,4,0,1,1,2,0,55,15695,interesting,interesting,4421,2.6,0.34375,1,80,12534.125
LAE04,YES,4,18.7,4,4,3,5,5,4,0.25,0.25,0.75,0.25,0.25,0.25,0.25,0.5,0,2,3,4,4,0,1,1,2,0,56,17407,senators,senators,120,2.6,0.34375,1,80,12534.125
LAE04,YES,4,18.7,4,4,3,5,5,4,0.25,0.25,0.75,0.25,0.25,0.25,0.25,0.5,0,2,3,4,4,0,1,1,2,0,57,11406,fought,fought,1362,2.6,0.34375,1,80,12534.125
LAE04,YES,4,18.7,4,4,3,5,5,4,0.25,0.25,0.75,0.25,0.25,0.25,0.25,0.5,0,2,3,4,4,0,1,1,2,0,58,11557,dignity,dignity,551,2.6,0.34375,1,80,12534.125
LAE04,YES,4,18.7,4,4,3,5,5,4,0.25,0.25,0.75,0.25,0.25,0.25,0.25,0.5,0,2,3,4,4,0,1,1,2,0,59,10434,wait,wait,42343,2.6,0.34375,1,80,12534.125
LAE04,YES,4,18.7,4,4,3,5,5,4,0.25,0.25,0.75,0.25,0.25,0.25,0.25,0.5,0,2,3,4,4,0,1,1,2,0,60,1037,stream,stream,410,2.6,0.34375,1,80,12534.125
LAE04,YES,4,18.7,4,4,3,5,5,4,0.25,0.25,0.75,0.25,0.25,0.25,0.25,0.5,0,2,3,4,4,0,1,1,2,0,61,14169,skate,skate,301,2.6,0.34375,1,80,12534.125
LAE04,YES,4,18.7,4,4,3,5,5,4,0.25,0.25,0.75,0.25,0.25,0.25,0.25,0.5,0,2,3,4,4,0,1,1,2,0,62,12094,please,please,56149,2.6,0.34375,1,80,12534.125
LAE04,YES,4,18.7,4,4,3,5,5,4,0.25,0.25,0.75,0.25,0.25,0.25,0.25,0.5,0,2,3,4,4,0,1,1,2,0,63,11934,ghost,ghost,1866,2.6,0.34375,1,80,12534.125
LAE04,YES,4,18.7,4,4,3,5,5,4,0.25,0.25,0.75,0.25,0.25,0.25,0.25,0.5,0,2,3,4,4,0,1,1,2,0,64,11554,engine,engine,1626,2.6,0.34375,1,80,12534.125
LAE04,YES,4,18.7,4,4,3,5,5,4,0.25,0.25,0.75,0.25,0.25,0.25,0.25,0.5,0,2,3,4,4,0,1,1,2,0,65,28845,condense,condense,14,2.6,0.34375,1,80,12534.125
LAE04,YES,4,18.7,4,4,3,5,5,4,0.25,0.25,0.75,0.25,0.25,0.25,0.25,0.5,0,2,3,4,4,0,1,1,2,0,66,14378,store,store,4178,2.6,0.34375,1,80,12534.125
LAE04,YES,4,18.7,4,4,3,5,5,4,0.25,0.25,0.75,0.25,0.25,0.25,0.25,0.5,0,2,3,4,4,0,1,1,2,0,67,1242,hole,hole,2969,2.6,0.34375,1,80,12534.125
LAE04,YES,4,18.7,4,4,3,5,5,4,0.25,0.25,0.75,0.25,0.25,0.25,0.25,0.5,0,2,3,4,4,0,1,1,2,0,68,1149,sheep,sheep,685,2.6,0.34375,1,80,12534.125
LAE04,YES,4,18.7,4,4,3,5,5,4,0.25,0.25,0.75,0.25,0.25,0.25,0.25,0.5,0,2,3,4,4,0,1,1,2,0,69,11611,easy,easy,13551,2.6,0.34375,1,80,12534.125
LAE04,YES,4,18.7,4,4,3,5,5,4,0.25,0.25,0.75,0.25,0.25,0.25,0.25,0.5,0,2,3,4,4,0,1,1,2,0,70,10868,dream,dream,6798,2.6,0.34375,1,80,12534.125
LAE04,YES,4,18.7,4,4,3,5,5,4,0.25,0.25,0.75,0.25,0.25,0.25,0.25,0.5,0,2,3,4,4,0,1,1,2,0,71,10443,heavy,heavy,2412,2.6,0.34375,1,80,12534.125
LAE04,YES,4,18.7,4,4,3,5,5,4,0.25,0.25,0.75,0.25,0.25,0.25,0.25,0.5,0,2,3,4,4,0,1,1,2,0,72,9884,need,need,66040,2.6,0.34375,1,80,12534.125
LAE04,YES,4,18.7,4,4,3,5,5,4,0.25,0.25,0.75,0.25,0.25,0.25,0.25,0.5,0,2,3,4,4,0,1,1,2,0,73,10684,backwards,backwards,667,2.6,0.34375,1,80,12534.125
LAE04,YES,4,18.7,4,4,3,5,5,4,0.25,0.25,0.75,0.25,0.25,0.25,0.25,0.5,0,2,3,4,4,0,1,1,2,0,74,21691,applause,applause,576,2.6,0.34375,1,80,12534.125
LAE04,YES,4,18.7,4,4,3,5,5,4,0.25,0.25,0.75,0.25,0.25,0.25,0.25,0.5,0,2,3,4,4,0,1,1,2,0,75,11398,nostrils,nostrils,82,2.6,0.34375,1,80,12534.125
LAE04,YES,4,18.7,4,4,3,5,5,4,0.25,0.25,0.75,0.25,0.25,0.25,0.25,0.5,0,2,3,4,4,0,1,1,2,0,76,10036,sudden,sudden,1707,2.6,0.34375,1,80,12534.125
LAE04,YES,4,18.7,4,4,3,5,5,4,0.25,0.25,0.75,0.25,0.25,0.25,0.25,0.5,0,2,3,4,4,0,1,1,2,0,77,11263,salmon,salmon,334,2.6,0.34375,1,80,12534.125
LAE04,YES,4,18.7,4,4,3,5,5,4,0.25,0.25,0.75,0.25,0.25,0.25,0.25,0.5,0,2,3,4,4,0,1,1,2,0,78,11705,sensitive,sensitive,1149,2.6,0.34375,1,80,12534.125
LAE04,YES,4,18.7,4,4,3,5,5,4,0.25,0.25,0.75,0.25,0.25,0.25,0.25,0.5,0,2,3,4,4,0,1,1,2,0,79,11585,nuisance,nuisance,164,2.6,0.34375,1,80,12534.125
LAE04,YES,4,18.7,4,4,3,5,5,4,0.25,0.25,0.75,0.25,0.25,0.25,0.25,0.5,0,2,3,4,4,0,1,1,2,0,80,13241,muscle,muscle,694,2.6,0.34375,1,80,12534.125
LAE05,NO,4,17.4,5,3,3,5,3,3,0.25,0.25,0.25,0.75,0.5,0.25,0.5,0.5,1,3,0,4,4,2,3,0,4,3,1,17708,resource,resource,83,2.4,0.40625,1,77,11115.883116883117
LAE05,NO,4,17.4,5,3,3,5,3,3,0.25,0.25,0.25,0.75,0.5,0.25,0.5,0.5,1,3,0,4,4,2,3,0,4,3,2,13785,study,study,2501,2.4,0.40625,1,77,11115.883116883117
LAE05,NO,4,17.4,5,3,3,5,3,3,0.25,0.25,0.25,0.75,0.5,0.25,0.5,0.5,1,3,0,4,4,2,3,0,4,3,3,11432,captain,captain,10622,2.4,0.40625,1,77,11115.883116883117
LAE05,NO,4,17.4,5,3,3,5,3,3,0.25,0.25,0.25,0.75,0.5,0.25,0.5,0.5,1,3,0,4,4,2,3,0,4,3,4,10205,basement,basement,1074,2.4,0.40625,1,77,11115.883116883117
LAE05,NO,4,17.4,5,3,3,5,3,3,0.25,0.25,0.25,0.75,0.5,0.25,0.5,0.5,1,3,0,4,4,2,3,0,4,3,5,13927,sensitive,sensitive,1149,2.4,0.40625,1,77,11115.883116883117
LAE05,NO,4,17.4,5,3,3,5,3,3,0.25,0.25,0.25,0.75,0.5,0.25,0.5,0.5,1,3,0,4,4,2,3,0,4,3,6,9789,word,word,12013,2.4,0.40625,1,77,11115.883116883117
LAE05,NO,4,17.4,5,3,3,5,3,3,0.25,0.25,0.25,0.75,0.5,0.25,0.5,0.5,1,3,0,4,4,2,3,0,4,3,7,11634,several,several,1978,2.4,0.40625,1,77,11115.883116883117
LAE05,NO,4,17.4,5,3,3,5,3,3,0.25,0.25,0.25,0.75,0.5,0.25,0.5,0.5,1,3,0,4,4,2,3,0,4,3,8,10993,need,need,66040,2.4,0.40625,1,77,11115.883116883117
LAE05,NO,4,17.4,5,3,3,5,3,3,0.25,0.25,0.25,0.75,0.5,0.25,0.5,0.5,1,3,0,4,4,2,3,0,4,3,9,12464,hurt,hurt,12564,2.4,0.40625,1,77,11115.883116883117
LAE05,NO,4,17.4,5,3,3,5,3,3,0.25,0.25,0.25,0.75,0.5,0.25,0.5,0.5,1,3,0,4,4,2,3,0,4,3,10,11112,alternative,alternative,476,2.4,0.40625,1,77,11115.883116883117
LAE05,NO,4,17.4,5,3,3,5,3,3,0.25,0.25,0.25,0.75,0.5,0.25,0.5,0.5,1,3,0,4,4,2,3,0,4,3,11,17176,backwards,backwards,667,2.4,0.40625,1,77,11115.883116883117
LAE05,NO,4,17.4,5,3,3,5,3,3,0.25,0.25,0.25,0.75,0.5,0.25,0.5,0.5,1,3,0,4,4,2,3,0,4,3,12,2400,coat,coat,2146,2.4,0.40625,1,77,11115.883116883117
LAE05,NO,4,17.4,5,3,3,5,3,3,0.25,0.25,0.25,0.75,0.5,0.25,0.5,0.5,1,3,0,4,4,2,3,0,4,3,13,22607,roar,roar,205,2.4,0.40625,1,77,11115.883116883117
LAE05,NO,4,17.4,5,3,3,5,3,3,0.25,0.25,0.25,0.75,0.5,0.25,0.5,0.5,1,3,0,4,4,2,3,0,4,3,14,14289,fought,fought,1362,2.4,0.40625,1,77,11115.883116883117
LAE05,NO,4,17.4,5,3,3,5,3,3,0.25,0.25,0.25,0.75,0.5,0.25,0.5,0.5,1,3,0,4,4,2,3,0,4,3,15,9066,important,important,10587,2.4,0.40625,1,77,11115.883116883117
LAE05,NO,4,17.4,5,3,3,5,3,3,0.25,0.25,0.25,0.75,0.5,0.25,0.5,0.5,1,3,0,4,4,2,3,0,4,3,16,10549,face,face,14747,2.4,0.40625,1,77,11115.883116883117
LAE05,NO,4,17.4,5,3,3,5,3,3,0.25,0.25,0.25,0.75,0.5,0.25,0.5,0.5,1,3,0,4,4,2,3,0,4,3,17,17311,mystery,mystery,1171,2.4,0.40625,1,77,11115.883116883117
LAE05,NO,4,17.4,5,3,3,5,3,3,0.25,0.25,0.25,0.75,0.5,0.25,0.5,0.5,1,3,0,4,4,2,3,0,4,3,18,25477,senators,senators,120,2.4,0.40625,1,77,11115.883116883117
LAE05,NO,4,17.4,5,3,3,5,3,3,0.25,0.25,0.25,0.75,0.5,0.25,0.5,0.5,1,3,0,4,4,2,3,0,4,3,19,18766,condense,condense,14,2.4,0.40625,1,77,11115.883116883117
LAE05,NO,4,17.4,5,3,3,5,3,3,0.25,0.25,0.25,0.75,0.5,0.25,0.5,0.5,1,3,0,4,4,2,3,0,4,3,20,17562,scare,scare,1712,2.4,0.40625,1,77,11115.883116883117
LAE05,NO,4,17.4,5,3,3,5,3,3,0.25,0.25,0.25,0.75,0.5,0.25,0.5,0.5,1,3,0,4,4,2,3,0,4,3,21,24749,reath,wreath,54,2.4,0.40625,0,77,11115.883116883117
LAE05,NO,4,17.4,5,3,3,5,3,3,0.25,0.25,0.25,0.75,0.5,0.25,0.5,0.5,1,3,0,4,4,2,3,0,4,3,22,13928,deep,deep,3896,2.4,0.40625,1,77,11115.883116883117
LAE05,NO,4,17.4,5,3,3,5,3,3,0.25,0.25,0.25,0.75,0.5,0.25,0.5,0.5,1,3,0,4,4,2,3,0,4,3,23,985,easy,easy,13551,2.4,0.40625,1,77,11115.883116883117
LAE05,NO,4,17.4,5,3,3,5,3,3,0.25,0.25,0.25,0.75,0.5,0.25,0.5,0.5,1,3,0,4,4,2,3,0,4,3,24,13341,toward,toward,1169,2.4,0.40625,1,77,11115.883116883117
LAE05,NO,4,17.4,5,3,3,5,3,3,0.25,0.25,0.25,0.75,0.5,0.25,0.5,0.5,1,3,0,4,4,2,3,0,4,3,25,21764,applause,applause,576,2.4,0.40625,1,77,11115.883116883117
LAE05,NO,4,17.4,5,3,3,5,3,3,0.25,0.25,0.25,0.75,0.5,0.25,0.5,0.5,1,3,0,4,4,2,3,0,4,3,26,14251,demon,demon,1593,2.4,0.40625,1,77,11115.883116883117
LAE05,NO,4,17.4,5,3,3,5,3,3,0.25,0.25,0.25,0.75,0.5,0.25,0.5,0.5,1,3,0,4,4,2,3,0,4,3,27,10845,learn,learn,6047,2.4,0.40625,1,77,11115.883116883117
LAE05,NO,4,17.4,5,3,3,5,3,3,0.25,0.25,0.25,0.75,0.5,0.25,0.5,0.5,1,3,0,4,4,2,3,0,4,3,28,9697,hearth,hearth,34,2.4,0.40625,1,77,11115.883116883117
LAE05,NO,4,17.4,5,3,3,5,3,3,0.25,0.25,0.25,0.75,0.5,0.25,0.5,0.5,1,3,0,4,4,2,3,0,4,3,29,1228,wagon,wagon,906,2.4,0.40625,1,77,11115.883116883117
LAE05,NO,4,17.4,5,3,3,5,3,3,0.25,0.25,0.25,0.75,0.5,0.25,0.5,0.5,1,3,0,4,4,2,3,0,4,3,30,24845,interesting,interesting,4421,2.4,0.40625,1,77,11115.883116883117
LAE05,NO,4,17.4,5,3,3,5,3,3,0.25,0.25,0.25,0.75,0.5,0.25,0.5,0.5,1,3,0,4,4,2,3,0,4,3,31,11161,choose,choose,2451,2.4,0.40625,1,77,11115.883116883117
LAE05,NO,4,17.4,5,3,3,5,3,3,0.25,0.25,0.25,0.75,0.5,0.25,0.5,0.5,1,3,0,4,4,2,3,0,4,3,32,10681,wait,wait,42343,2.4,0.40625,1,77,11115.883116883117
LAE05,NO,4,17.4,5,3,3,5,3,3,0.25,0.25,0.25,0.75,0.5,0.25,0.5,0.5,1,3,0,4,4,2,3,0,4,3,33,10038,answer,answer,8986,2.4,0.40625,1,77,11115.883116883117
LAE05,NO,4,17.4,5,3,3,5,3,3,0.25,0.25,0.25,0.75,0.5,0.25,0.5,0.5,1,3,0,4,4,2,3,0,4,3,34,10197,grown,grown,1275,2.4,0.40625,1,77,11115.883116883117
LAE05,NO,4,17.4,5,3,3,5,3,3,0.25,0.25,0.25,0.75,0.5,0.25,0.5,0.5,1,3,0,4,4,2,3,0,4,3,35,10535,between,between,8932,2.4,0.40625,1,77,11115.883116883117
LAE05,NO,4,17.4,5,3,3,5,3,3,0.25,0.25,0.25,0.75,0.5,0.25,0.5,0.5,1,3,0,4,4,2,3,0,4,3,36,11788,salad,salad,868,2.4,0.40625,1,77,11115.883116883117
LAE05,NO,4,17.4,5,3,3,5,3,3,0.25,0.25,0.25,0.75,0.5,0.25,0.5,0.5,1,3,0,4,4,2,3,0,4,3,37,9616,salmon,salmon,334,2.4,0.40625,1,77,11115.883116883117
LAE05,NO,4,17.4,5,3,3,5,3,3,0.25,0.25,0.25,0.75,0.5,0.25,0.5,0.5,1,3,0,4,4,2,3,0,4,3,38,812,vero,vero,NA,2.4,0.40625,1,77,11115.883116883117
LAE05,NO,4,17.4,5,3,3,5,3,3,0.25,0.25,0.25,0.75,0.5,0.25,0.5,0.5,1,3,0,4,4,2,3,0,4,3,39,8127,muscle,muscle,694,2.4,0.40625,1,77,11115.883116883117
LAE05,NO,4,17.4,5,3,3,5,3,3,0.25,0.25,0.25,0.75,0.5,0.25,0.5,0.5,1,3,0,4,4,2,3,0,4,3,40,9307,example,example,1527,2.4,0.40625,1,77,11115.883116883117
LAE05,NO,4,17.4,5,3,3,5,3,3,0.25,0.25,0.25,0.75,0.5,0.25,0.5,0.5,1,3,0,4,4,2,3,0,4,3,41,8661,compliment,compliment,523,2.4,0.40625,1,77,11115.883116883117
LAE05,NO,4,17.4,5,3,3,5,3,3,0.25,0.25,0.25,0.75,0.5,0.25,0.5,0.5,1,3,0,4,4,2,3,0,4,3,42,877,wise,wise,1452,2.4,0.40625,1,77,11115.883116883117
LAE05,NO,4,17.4,5,3,3,5,3,3,0.25,0.25,0.25,0.75,0.5,0.25,0.5,0.5,1,3,0,4,4,2,3,0,4,3,43,8748,every,every,28007,2.4,0.40625,1,77,11115.883116883117
LAE05,NO,4,17.4,5,3,3,5,3,3,0.25,0.25,0.25,0.75,0.5,0.25,0.5,0.5,1,3,0,4,4,2,3,0,4,3,44,9077,goat,goat,537,2.4,0.40625,1,77,11115.883116883117
LAE05,NO,4,17.4,5,3,3,5,3,3,0.25,0.25,0.25,0.75,0.5,0.25,0.5,0.5,1,3,0,4,4,2,3,0,4,3,45,16434,nostrils,nostrils,82,2.4,0.40625,1,77,11115.883116883117
LAE05,NO,4,17.4,5,3,3,5,3,3,0.25,0.25,0.25,0.75,0.5,0.25,0.5,0.5,1,3,0,4,4,2,3,0,4,3,46,9334,please,please,56149,2.4,0.40625,1,77,11115.883116883117
LAE05,NO,4,17.4,5,3,3,5,3,3,0.25,0.25,0.25,0.75,0.5,0.25,0.5,0.5,1,3,0,4,4,2,3,0,4,3,47,9422,hole,hole,2969,2.4,0.40625,1,77,11115.883116883117
LAE05,NO,4,17.4,5,3,3,5,3,3,0.25,0.25,0.25,0.75,0.5,0.25,0.5,0.5,1,3,0,4,4,2,3,0,4,3,48,8858,wheat,wheat,293,2.4,0.40625,1,77,11115.883116883117
LAE05,NO,4,17.4,5,3,3,5,3,3,0.25,0.25,0.25,0.75,0.5,0.25,0.5,0.5,1,3,0,4,4,2,3,0,4,3,49,8738,heavy,heavy,2412,2.4,0.40625,1,77,11115.883116883117
LAE05,NO,4,17.4,5,3,3,5,3,3,0.25,0.25,0.25,0.75,0.5,0.25,0.5,0.5,1,3,0,4,4,2,3,0,4,3,50,8678,travel,travel,1702,2.4,0.40625,1,77,11115.883116883117
LAE05,NO,4,17.4,5,3,3,5,3,3,0.25,0.25,0.25,0.75,0.5,0.25,0.5,0.5,1,3,0,4,4,2,3,0,4,3,51,13376,ghost,ghost,1866,2.4,0.40625,1,77,11115.883116883117
LAE05,NO,4,17.4,5,3,3,5,3,3,0.25,0.25,0.25,0.75,0.5,0.25,0.5,0.5,1,3,0,4,4,2,3,0,4,3,52,10516,purched,perched,30,2.4,0.40625,0,77,11115.883116883117
LAE05,NO,4,17.4,5,3,3,5,3,3,0.25,0.25,0.25,0.75,0.5,0.25,0.5,0.5,1,3,0,4,4,2,3,0,4,3,53,21095,culpert,culprit,55,2.4,0.40625,0,77,11115.883116883117
LAE05,NO,4,17.4,5,3,3,5,3,3,0.25,0.25,0.25,0.75,0.5,0.25,0.5,0.5,1,3,0,4,4,2,3,0,4,3,54,10767,tape,tape,3511,2.4,0.40625,1,77,11115.883116883117
LAE05,NO,4,17.4,5,3,3,5,3,3,0.25,0.25,0.25,0.75,0.5,0.25,0.5,0.5,1,3,0,4,4,2,3,0,4,3,55,9056,thumb,thumb,603,2.4,0.40625,1,77,11115.883116883117
LAE05,NO,4,17.4,5,3,3,5,3,3,0.25,0.25,0.25,0.75,0.5,0.25,0.5,0.5,1,3,0,4,4,2,3,0,4,3,56,10611,distance,distance,1306,2.4,0.40625,1,77,11115.883116883117
LAE05,NO,4,17.4,5,3,3,5,3,3,0.25,0.25,0.25,0.75,0.5,0.25,0.5,0.5,1,3,0,4,4,2,3,0,4,3,57,19763,explain,explain,5670,2.4,0.40625,1,77,11115.883116883117
LAE05,NO,4,17.4,5,3,3,5,3,3,0.25,0.25,0.25,0.75,0.5,0.25,0.5,0.5,1,3,0,4,4,2,3,0,4,3,58,11873,skate,skate,301,2.4,0.40625,1,77,11115.883116883117
LAE05,NO,4,17.4,5,3,3,5,3,3,0.25,0.25,0.25,0.75,0.5,0.25,0.5,0.5,1,3,0,4,4,2,3,0,4,3,59,17002,pavement,pavement,103,2.4,0.40625,1,77,11115.883116883117
LAE05,NO,4,17.4,5,3,3,5,3,3,0.25,0.25,0.25,0.75,0.5,0.25,0.5,0.5,1,3,0,4,4,2,3,0,4,3,60,11236,stream,stream,410,2.4,0.40625,1,77,11115.883116883117
LAE05,NO,4,17.4,5,3,3,5,3,3,0.25,0.25,0.25,0.75,0.5,0.25,0.5,0.5,1,3,0,4,4,2,3,0,4,3,61,10764,assure,assure,1021,2.4,0.40625,1,77,11115.883116883117
LAE05,NO,4,17.4,5,3,3,5,3,3,0.25,0.25,0.25,0.75,0.5,0.25,0.5,0.5,1,3,0,4,4,2,3,0,4,3,62,981,dream,dream,6798,2.4,0.40625,1,77,11115.883116883117
LAE05,NO,4,17.4,5,3,3,5,3,3,0.25,0.25,0.25,0.75,0.5,0.25,0.5,0.5,1,3,0,4,4,2,3,0,4,3,63,9093,keep,keep,35846,2.4,0.40625,1,77,11115.883116883117
LAE05,NO,4,17.4,5,3,3,5,3,3,0.25,0.25,0.25,0.75,0.5,0.25,0.5,0.5,1,3,0,4,4,2,3,0,4,3,64,9091,nice,nice,33125,2.4,0.40625,1,77,11115.883116883117
LAE05,NO,4,17.4,5,3,3,5,3,3,0.25,0.25,0.25,0.75,0.5,0.25,0.5,0.5,1,3,0,4,4,2,3,0,4,3,65,837,street,street,7557,2.4,0.40625,1,77,11115.883116883117
LAE05,NO,4,17.4,5,3,3,5,3,3,0.25,0.25,0.25,0.75,0.5,0.25,0.5,0.5,1,3,0,4,4,2,3,0,4,3,66,10025,take,take,96443,2.4,0.40625,1,77,11115.883116883117
LAE05,NO,4,17.4,5,3,3,5,3,3,0.25,0.25,0.25,0.75,0.5,0.25,0.5,0.5,1,3,0,4,4,2,3,0,4,3,67,11252,rain,rain,2494,2.4,0.40625,1,77,11115.883116883117
LAE05,NO,4,17.4,5,3,3,5,3,3,0.25,0.25,0.25,0.75,0.5,0.25,0.5,0.5,1,3,0,4,4,2,3,0,4,3,68,9244,liberty,liberty,849,2.4,0.40625,1,77,11115.883116883117
LAE05,NO,4,17.4,5,3,3,5,3,3,0.25,0.25,0.25,0.75,0.5,0.25,0.5,0.5,1,3,0,4,4,2,3,0,4,3,69,8902,store,store,4178,2.4,0.40625,1,77,11115.883116883117
LAE05,NO,4,17.4,5,3,3,5,3,3,0.25,0.25,0.25,0.75,0.5,0.25,0.5,0.5,1,3,0,4,4,2,3,0,4,3,70,9795,sudden,sudden,1707,2.4,0.40625,1,77,11115.883116883117
LAE05,NO,4,17.4,5,3,3,5,3,3,0.25,0.25,0.25,0.75,0.5,0.25,0.5,0.5,1,3,0,4,4,2,3,0,4,3,71,10532,few,few,15393,2.4,0.40625,1,77,11115.883116883117
LAE05,NO,4,17.4,5,3,3,5,3,3,0.25,0.25,0.25,0.75,0.5,0.25,0.5,0.5,1,3,0,4,4,2,3,0,4,3,72,17163,believe,believe,31882,2.4,0.40625,1,77,11115.883116883117
LAE05,NO,4,17.4,5,3,3,5,3,3,0.25,0.25,0.25,0.75,0.5,0.25,0.5,0.5,1,3,0,4,4,2,3,0,4,3,73,11416,sheep,sheep,685,2.4,0.40625,1,77,11115.883116883117
LAE05,NO,4,17.4,5,3,3,5,3,3,0.25,0.25,0.25,0.75,0.5,0.25,0.5,0.5,1,3,0,4,4,2,3,0,4,3,74,17393,nuisance,nuisance,164,2.4,0.40625,1,77,11115.883116883117
LAE05,NO,4,17.4,5,3,3,5,3,3,0.25,0.25,0.25,0.75,0.5,0.25,0.5,0.5,1,3,0,4,4,2,3,0,4,3,75,9329,dignity,dignity,551,2.4,0.40625,1,77,11115.883116883117
LAE05,NO,4,17.4,5,3,3,5,3,3,0.25,0.25,0.25,0.75,0.5,0.25,0.5,0.5,1,3,0,4,4,2,3,0,4,3,76,8723,engine,engine,1626,2.4,0.40625,1,77,11115.883116883117
LAE05,NO,4,17.4,5,3,3,5,3,3,0.25,0.25,0.25,0.75,0.5,0.25,0.5,0.5,1,3,0,4,4,2,3,0,4,3,77,1173,trousers,trousers,263,2.4,0.40625,1,77,11115.883116883117
LAE05,NO,4,17.4,5,3,3,5,3,3,0.25,0.25,0.25,0.75,0.5,0.25,0.5,0.5,1,3,0,4,4,2,3,0,4,3,78,9089,smoke,smoke,3337,2.4,0.40625,1,77,11115.883116883117
LAE05,NO,4,17.4,5,3,3,5,3,3,0.25,0.25,0.25,0.75,0.5,0.25,0.5,0.5,1,3,0,4,4,2,3,0,4,3,79,7653,sleep,sleep,11625,2.4,0.40625,1,77,11115.883116883117
LAE05,NO,4,17.4,5,3,3,5,3,3,0.25,0.25,0.25,0.75,0.5,0.25,0.5,0.5,1,3,0,4,4,2,3,0,4,3,80,9559,lake,lake,1836,2.4,0.40625,1,77,11115.883116883117
LAE06,NO,1,14.3,5,5,3,3,4,3,0,0,0.25,0,0.25,0.25,0.25,0.25,0,0,0,2,2,1,3,0,3,1,1,20506,sleep,sleep,11625,0.8,0.15625,1,74,21122.08108108108
LAE06,NO,1,14.3,5,5,3,3,4,3,0,0,0.25,0,0.25,0.25,0.25,0.25,0,0,0,2,2,1,3,0,3,1,2,21445,purched,perched,30,0.8,0.15625,0,74,21122.08108108108
LAE06,NO,1,14.3,5,5,3,3,4,3,0,0,0.25,0,0.25,0.25,0.25,0.25,0,0,0,2,2,1,3,0,3,1,3,16099,travel,travel,1702,0.8,0.15625,1,74,21122.08108108108
LAE06,NO,1,14.3,5,5,3,3,4,3,0,0,0.25,0,0.25,0.25,0.25,0.25,0,0,0,2,2,1,3,0,3,1,4,15461,keep,keep,35846,0.8,0.15625,1,74,21122.08108108108
LAE06,NO,1,14.3,5,5,3,3,4,3,0,0,0.25,0,0.25,0.25,0.25,0.25,0,0,0,2,2,1,3,0,3,1,5,13805,grown,grown,1275,0.8,0.15625,1,74,21122.08108108108
LAE06,NO,1,14.3,5,5,3,3,4,3,0,0,0.25,0,0.25,0.25,0.25,0.25,0,0,0,2,2,1,3,0,3,1,6,26117,wagon,wagon,906,0.8,0.15625,1,74,21122.08108108108
LAE06,NO,1,14.3,5,5,3,3,4,3,0,0,0.25,0,0.25,0.25,0.25,0.25,0,0,0,2,2,1,3,0,3,1,7,36531,fought,fought,1362,0.8,0.15625,1,74,21122.08108108108
LAE06,NO,1,14.3,5,5,3,3,4,3,0,0,0.25,0,0.25,0.25,0.25,0.25,0,0,0,2,2,1,3,0,3,1,8,3661,hurt,hurt,12564,0.8,0.15625,1,74,21122.08108108108
LAE06,NO,1,14.3,5,5,3,3,4,3,0,0,0.25,0,0.25,0.25,0.25,0.25,0,0,0,2,2,1,3,0,3,1,9,18911,engine,engine,1626,0.8,0.15625,1,74,21122.08108108108
LAE06,NO,1,14.3,5,5,3,3,4,3,0,0,0.25,0,0.25,0.25,0.25,0.25,0,0,0,2,2,1,3,0,3,1,10,18037,toward,toward,1169,0.8,0.15625,1,74,21122.08108108108
LAE06,NO,1,14.3,5,5,3,3,4,3,0,0,0.25,0,0.25,0.25,0.25,0.25,0,0,0,2,2,1,3,0,3,1,11,14518,deep,deep,3896,0.8,0.15625,1,74,21122.08108108108
LAE06,NO,1,14.3,5,5,3,3,4,3,0,0,0.25,0,0.25,0.25,0.25,0.25,0,0,0,2,2,1,3,0,3,1,12,37796,resource,resource,83,0.8,0.15625,1,74,21122.08108108108
LAE06,NO,1,14.3,5,5,3,3,4,3,0,0,0.25,0,0.25,0.25,0.25,0.25,0,0,0,2,2,1,3,0,3,1,13,12903,smoke,smoke,3337,0.8,0.15625,1,74,21122.08108108108
LAE06,NO,1,14.3,5,5,3,3,4,3,0,0,0.25,0,0.25,0.25,0.25,0.25,0,0,0,2,2,1,3,0,3,1,14,17159,sensitive,sensitive,1149,0.8,0.15625,1,74,21122.08108108108
LAE06,NO,1,14.3,5,5,3,3,4,3,0,0,0.25,0,0.25,0.25,0.25,0.25,0,0,0,2,2,1,3,0,3,1,15,35722,senators,senators,120,0.8,0.15625,1,74,21122.08108108108
LAE06,NO,1,14.3,5,5,3,3,4,3,0,0,0.25,0,0.25,0.25,0.25,0.25,0,0,0,2,2,1,3,0,3,1,16,2409,wise,wise,1452,0.8,0.15625,1,74,21122.08108108108
LAE06,NO,1,14.3,5,5,3,3,4,3,0,0,0.25,0,0.25,0.25,0.25,0.25,0,0,0,2,2,1,3,0,3,1,17,36686,wreath,wreath,54,0.8,0.15625,1,74,21122.08108108108
LAE06,NO,1,14.3,5,5,3,3,4,3,0,0,0.25,0,0.25,0.25,0.25,0.25,0,0,0,2,2,1,3,0,3,1,18,16105,hearth,hearth,34,0.8,0.15625,1,74,21122.08108108108
LAE06,NO,1,14.3,5,5,3,3,4,3,0,0,0.25,0,0.25,0.25,0.25,0.25,0,0,0,2,2,1,3,0,3,1,19,15719,face,face,14747,0.8,0.15625,1,74,21122.08108108108
LAE06,NO,1,14.3,5,5,3,3,4,3,0,0,0.25,0,0.25,0.25,0.25,0.25,0,0,0,2,2,1,3,0,3,1,20,16198,please,please,56149,0.8,0.15625,1,74,21122.08108108108
LAE06,NO,1,14.3,5,5,3,3,4,3,0,0,0.25,0,0.25,0.25,0.25,0.25,0,0,0,2,2,1,3,0,3,1,21,31569,wheat,wheat,293,0.8,0.15625,1,74,21122.08108108108
LAE06,NO,1,14.3,5,5,3,3,4,3,0,0,0.25,0,0.25,0.25,0.25,0.25,0,0,0,2,2,1,3,0,3,1,22,44039,culpert,culprit,55,0.8,0.15625,0,74,21122.08108108108
LAE06,NO,1,14.3,5,5,3,3,4,3,0,0,0.25,0,0.25,0.25,0.25,0.25,0,0,0,2,2,1,3,0,3,1,23,17799,alternative,alternative,476,0.8,0.15625,1,74,21122.08108108108
LAE06,NO,1,14.3,5,5,3,3,4,3,0,0,0.25,0,0.25,0.25,0.25,0.25,0,0,0,2,2,1,3,0,3,1,24,2924,nostrels,nostrils,82,0.8,0.15625,0,74,21122.08108108108
LAE06,NO,1,14.3,5,5,3,3,4,3,0,0,0.25,0,0.25,0.25,0.25,0.25,0,0,0,2,2,1,3,0,3,1,25,28277,scare,scare,1712,0.8,0.15625,1,74,21122.08108108108
LAE06,NO,1,14.3,5,5,3,3,4,3,0,0,0.25,0,0.25,0.25,0.25,0.25,0,0,0,2,2,1,3,0,3,1,26,26343,sheep,sheep,685,0.8,0.15625,1,74,21122.08108108108
LAE06,NO,1,14.3,5,5,3,3,4,3,0,0,0.25,0,0.25,0.25,0.25,0.25,0,0,0,2,2,1,3,0,3,1,27,14998,answer,answer,8986,0.8,0.15625,1,74,21122.08108108108
LAE06,NO,1,14.3,5,5,3,3,4,3,0,0,0.25,0,0.25,0.25,0.25,0.25,0,0,0,2,2,1,3,0,3,1,28,23159,assure,assure,1021,0.8,0.15625,1,74,21122.08108108108
LAE06,NO,1,14.3,5,5,3,3,4,3,0,0,0.25,0,0.25,0.25,0.25,0.25,0,0,0,2,2,1,3,0,3,1,29,20592,several,several,1978,0.8,0.15625,1,74,21122.08108108108
LAE06,NO,1,14.3,5,5,3,3,4,3,0,0,0.25,0,0.25,0.25,0.25,0.25,0,0,0,2,2,1,3,0,3,1,30,22359,captain,captain,10622,0.8,0.15625,1,74,21122.08108108108
LAE06,NO,1,14.3,5,5,3,3,4,3,0,0,0.25,0,0.25,0.25,0.25,0.25,0,0,0,2,2,1,3,0,3,1,31,18567,store,store,4178,0.8,0.15625,1,74,21122.08108108108
LAE06,NO,1,14.3,5,5,3,3,4,3,0,0,0.25,0,0.25,0.25,0.25,0.25,0,0,0,2,2,1,3,0,3,1,32,15327,sudden,sudden,1707,0.8,0.15625,1,74,21122.08108108108
LAE06,NO,1,14.3,5,5,3,3,4,3,0,0,0.25,0,0.25,0.25,0.25,0.25,0,0,0,2,2,1,3,0,3,1,33,14448,dream,dream,6798,0.8,0.15625,1,74,21122.08108108108
LAE06,NO,1,14.3,5,5,3,3,4,3,0,0,0.25,0,0.25,0.25,0.25,0.25,0,0,0,2,2,1,3,0,3,1,34,80926,nusance,nuisance,164,0.8,0.15625,0,74,21122.08108108108
LAE06,NO,1,14.3,5,5,3,3,4,3,0,0,0.25,0,0.25,0.25,0.25,0.25,0,0,0,2,2,1,3,0,3,1,35,1612,goat,goat,537,0.8,0.15625,1,74,21122.08108108108
LAE06,NO,1,14.3,5,5,3,3,4,3,0,0,0.25,0,0.25,0.25,0.25,0.25,0,0,0,2,2,1,3,0,3,1,36,3620,compliment,compliment,523,0.8,0.15625,1,74,21122.08108108108
LAE06,NO,1,14.3,5,5,3,3,4,3,0,0,0.25,0,0.25,0.25,0.25,0.25,0,0,0,2,2,1,3,0,3,1,37,14045,word,word,12013,0.8,0.15625,1,74,21122.08108108108
LAE06,NO,1,14.3,5,5,3,3,4,3,0,0,0.25,0,0.25,0.25,0.25,0.25,0,0,0,2,2,1,3,0,3,1,38,3318,mussle,muscle,694,0.8,0.15625,0,74,21122.08108108108
LAE06,NO,1,14.3,5,5,3,3,4,3,0,0,0.25,0,0.25,0.25,0.25,0.25,0,0,0,2,2,1,3,0,3,1,39,12927,few,few,15393,0.8,0.15625,1,74,21122.08108108108
LAE06,NO,1,14.3,5,5,3,3,4,3,0,0,0.25,0,0.25,0.25,0.25,0.25,0,0,0,2,2,1,3,0,3,1,40,21468,stream,stream,410,0.8,0.15625,1,74,21122.08108108108
LAE06,NO,1,14.3,5,5,3,3,4,3,0,0,0.25,0,0.25,0.25,0.25,0.25,0,0,0,2,2,1,3,0,3,1,41,3629,demon,demon,1593,0.8,0.15625,1,74,21122.08108108108
LAE06,NO,1,14.3,5,5,3,3,4,3,0,0,0.25,0,0.25,0.25,0.25,0.25,0,0,0,2,2,1,3,0,3,1,42,16038,between,between,8932,0.8,0.15625,1,74,21122.08108108108
LAE06,NO,1,14.3,5,5,3,3,4,3,0,0,0.25,0,0.25,0.25,0.25,0.25,0,0,0,2,2,1,3,0,3,1,43,38841,interesting,interesting,4421,0.8,0.15625,1,74,21122.08108108108
LAE06,NO,1,14.3,5,5,3,3,4,3,0,0,0.25,0,0.25,0.25,0.25,0.25,0,0,0,2,2,1,3,0,3,1,44,12913,liberty,liberty,849,0.8,0.15625,1,74,21122.08108108108
LAE06,NO,1,14.3,5,5,3,3,4,3,0,0,0.25,0,0.25,0.25,0.25,0.25,0,0,0,2,2,1,3,0,3,1,45,13346,learn,learn,6047,0.8,0.15625,1,74,21122.08108108108
LAE06,NO,1,14.3,5,5,3,3,4,3,0,0,0.25,0,0.25,0.25,0.25,0.25,0,0,0,2,2,1,3,0,3,1,46,17639,basement,basement,1074,0.8,0.15625,1,74,21122.08108108108
LAE06,NO,1,14.3,5,5,3,3,4,3,0,0,0.25,0,0.25,0.25,0.25,0.25,0,0,0,2,2,1,3,0,3,1,47,23164,explain,explain,5670,0.8,0.15625,1,74,21122.08108108108
LAE06,NO,1,14.3,5,5,3,3,4,3,0,0,0.25,0,0.25,0.25,0.25,0.25,0,0,0,2,2,1,3,0,3,1,48,36608,mystery,mystery,1171,0.8,0.15625,1,74,21122.08108108108
LAE06,NO,1,14.3,5,5,3,3,4,3,0,0,0.25,0,0.25,0.25,0.25,0.25,0,0,0,2,2,1,3,0,3,1,49,19638,dignity,dignity,551,0.8,0.15625,1,74,21122.08108108108
LAE06,NO,1,14.3,5,5,3,3,4,3,0,0,0.25,0,0.25,0.25,0.25,0.25,0,0,0,2,2,1,3,0,3,1,50,12615,easy,easy,13551,0.8,0.15625,1,74,21122.08108108108
LAE06,NO,1,14.3,5,5,3,3,4,3,0,0,0.25,0,0.25,0.25,0.25,0.25,0,0,0,2,2,1,3,0,3,1,51,22014,roar,roar,205,0.8,0.15625,1,74,21122.08108108108
LAE06,NO,1,14.3,5,5,3,3,4,3,0,0,0.25,0,0.25,0.25,0.25,0.25,0,0,0,2,2,1,3,0,3,1,52,15641,ghost,ghost,1866,0.8,0.15625,1,74,21122.08108108108
LAE06,NO,1,14.3,5,5,3,3,4,3,0,0,0.25,0,0.25,0.25,0.25,0.25,0,0,0,2,2,1,3,0,3,1,53,15715,distance,distance,1306,0.8,0.15625,1,74,21122.08108108108
LAE06,NO,1,14.3,5,5,3,3,4,3,0,0,0.25,0,0.25,0.25,0.25,0.25,0,0,0,2,2,1,3,0,3,1,54,16047,coat,coat,2146,0.8,0.15625,1,74,21122.08108108108
LAE06,NO,1,14.3,5,5,3,3,4,3,0,0,0.25,0,0.25,0.25,0.25,0.25,0,0,0,2,2,1,3,0,3,1,55,72289,applause,applause,576,0.8,0.15625,1,74,21122.08108108108
LAE06,NO,1,14.3,5,5,3,3,4,3,0,0,0.25,0,0.25,0.25,0.25,0.25,0,0,0,2,2,1,3,0,3,1,56,13551,heavy,heavy,2412,0.8,0.15625,1,74,21122.08108108108
LAE06,NO,1,14.3,5,5,3,3,4,3,0,0,0.25,0,0.25,0.25,0.25,0.25,0,0,0,2,2,1,3,0,3,1,57,20679,salmon,salmon,334,0.8,0.15625,1,74,21122.08108108108
LAE06,NO,1,14.3,5,5,3,3,4,3,0,0,0.25,0,0.25,0.25,0.25,0.25,0,0,0,2,2,1,3,0,3,1,58,15638,vero,vero,NA,0.8,0.15625,1,74,21122.08108108108
LAE06,NO,1,14.3,5,5,3,3,4,3,0,0,0.25,0,0.25,0.25,0.25,0.25,0,0,0,2,2,1,3,0,3,1,59,22843,trousers,trousers,263,0.8,0.15625,1,74,21122.08108108108
LAE06,NO,1,14.3,5,5,3,3,4,3,0,0,0.25,0,0.25,0.25,0.25,0.25,0,0,0,2,2,1,3,0,3,1,60,13785,skate,skate,301,0.8,0.15625,1,74,21122.08108108108
LAE06,NO,1,14.3,5,5,3,3,4,3,0,0,0.25,0,0.25,0.25,0.25,0.25,0,0,0,2,2,1,3,0,3,1,61,13559,believe,believe,31882,0.8,0.15625,1,74,21122.08108108108
LAE06,NO,1,14.3,5,5,3,3,4,3,0,0,0.25,0,0.25,0.25,0.25,0.25,0,0,0,2,2,1,3,0,3,1,62,13013,lake,lake,1836,0.8,0.15625,1,74,21122.08108108108
LAE06,NO,1,14.3,5,5,3,3,4,3,0,0,0.25,0,0.25,0.25,0.25,0.25,0,0,0,2,2,1,3,0,3,1,63,14279,rain,rain,2494,0.8,0.15625,1,74,21122.08108108108
LAE06,NO,1,14.3,5,5,3,3,4,3,0,0,0.25,0,0.25,0.25,0.25,0.25,0,0,0,2,2,1,3,0,3,1,64,12848,take,take,96443,0.8,0.15625,1,74,21122.08108108108
LAE06,NO,1,14.3,5,5,3,3,4,3,0,0,0.25,0,0.25,0.25,0.25,0.25,0,0,0,2,2,1,3,0,3,1,65,63324,pavement,pavement,103,0.8,0.15625,1,74,21122.08108108108
LAE06,NO,1,14.3,5,5,3,3,4,3,0,0,0.25,0,0.25,0.25,0.25,0.25,0,0,0,2,2,1,3,0,3,1,66,14918,tape,tape,3511,0.8,0.15625,1,74,21122.08108108108
LAE06,NO,1,14.3,5,5,3,3,4,3,0,0,0.25,0,0.25,0.25,0.25,0.25,0,0,0,2,2,1,3,0,3,1,67,11401,choose,choose,2451,0.8,0.15625,1,74,21122.08108108108
LAE06,NO,1,14.3,5,5,3,3,4,3,0,0,0.25,0,0.25,0.25,0.25,0.25,0,0,0,2,2,1,3,0,3,1,68,14997,thumb,thumb,603,0.8,0.15625,1,74,21122.08108108108
LAE06,NO,1,14.3,5,5,3,3,4,3,0,0,0.25,0,0.25,0.25,0.25,0.25,0,0,0,2,2,1,3,0,3,1,69,154038,condense,condense,14,0.8,0.15625,1,74,21122.08108108108
LAE06,NO,1,14.3,5,5,3,3,4,3,0,0,0.25,0,0.25,0.25,0.25,0.25,0,0,0,2,2,1,3,0,3,1,70,11985,hole,hole,2969,0.8,0.15625,1,74,21122.08108108108
LAE06,NO,1,14.3,5,5,3,3,4,3,0,0,0.25,0,0.25,0.25,0.25,0.25,0,0,0,2,2,1,3,0,3,1,71,13686,nice,nice,33125,0.8,0.15625,1,74,21122.08108108108
LAE06,NO,1,14.3,5,5,3,3,4,3,0,0,0.25,0,0.25,0.25,0.25,0.25,0,0,0,2,2,1,3,0,3,1,72,9322,need,need,66040,0.8,0.15625,1,74,21122.08108108108
LAE06,NO,1,14.3,5,5,3,3,4,3,0,0,0.25,0,0.25,0.25,0.25,0.25,0,0,0,2,2,1,3,0,3,1,73,15956,wait,wait,42343,0.8,0.15625,1,74,21122.08108108108
LAE06,NO,1,14.3,5,5,3,3,4,3,0,0,0.25,0,0.25,0.25,0.25,0.25,0,0,0,2,2,1,3,0,3,1,74,30447,backwords,backwards,667,0.8,0.15625,0,74,21122.08108108108
LAE06,NO,1,14.3,5,5,3,3,4,3,0,0,0.25,0,0.25,0.25,0.25,0.25,0,0,0,2,2,1,3,0,3,1,75,31966,street,street,7557,0.8,0.15625,1,74,21122.08108108108
LAE06,NO,1,14.3,5,5,3,3,4,3,0,0,0.25,0,0.25,0.25,0.25,0.25,0,0,0,2,2,1,3,0,3,1,76,12434,study,study,2501,0.8,0.15625,1,74,21122.08108108108
LAE06,NO,1,14.3,5,5,3,3,4,3,0,0,0.25,0,0.25,0.25,0.25,0.25,0,0,0,2,2,1,3,0,3,1,77,23489,salad,salad,868,0.8,0.15625,1,74,21122.08108108108
LAE06,NO,1,14.3,5,5,3,3,4,3,0,0,0.25,0,0.25,0.25,0.25,0.25,0,0,0,2,2,1,3,0,3,1,78,13085,every,every,28007,0.8,0.15625,1,74,21122.08108108108
LAE06,NO,1,14.3,5,5,3,3,4,3,0,0,0.25,0,0.25,0.25,0.25,0.25,0,0,0,2,2,1,3,0,3,1,79,17463,example,example,1527,0.8,0.15625,1,74,21122.08108108108
LAE06,NO,1,14.3,5,5,3,3,4,3,0,0,0.25,0,0.25,0.25,0.25,0.25,0,0,0,2,2,1,3,0,3,1,80,17185,important,important,10587,0.8,0.15625,1,74,21122.08108108108
LAE07,NO,1,14.9,6,5,4,3,5,3,0.25,0.25,0.75,0.5,0.25,0.25,0.25,0.25,4,4,4,4,3,1,1,0,1,1,1,31936,distance,distance,1306,3.8,0.34375,1,76,14425.657894736842
LAE07,NO,1,14.9,6,5,4,3,5,3,0.25,0.25,0.75,0.5,0.25,0.25,0.25,0.25,4,4,4,4,3,1,1,0,1,1,2,17604,nuisance,nuisance,164,3.8,0.34375,1,76,14425.657894736842
LAE07,NO,1,14.9,6,5,4,3,5,3,0.25,0.25,0.75,0.5,0.25,0.25,0.25,0.25,4,4,4,4,3,1,1,0,1,1,3,16318,lake,lake,1836,3.8,0.34375,1,76,14425.657894736842
LAE07,NO,1,14.9,6,5,4,3,5,3,0.25,0.25,0.75,0.5,0.25,0.25,0.25,0.25,4,4,4,4,3,1,1,0,1,1,4,11637,sleep,sleep,11625,3.8,0.34375,1,76,14425.657894736842
LAE07,NO,1,14.9,6,5,4,3,5,3,0.25,0.25,0.75,0.5,0.25,0.25,0.25,0.25,4,4,4,4,3,1,1,0,1,1,5,12441,salmon,salmon,334,3.8,0.34375,1,76,14425.657894736842
LAE07,NO,1,14.9,6,5,4,3,5,3,0.25,0.25,0.75,0.5,0.25,0.25,0.25,0.25,4,4,4,4,3,1,1,0,1,1,6,21856,take,take,96443,3.8,0.34375,1,76,14425.657894736842
LAE07,NO,1,14.9,6,5,4,3,5,3,0.25,0.25,0.75,0.5,0.25,0.25,0.25,0.25,4,4,4,4,3,1,1,0,1,1,7,19955,senators,senators,120,3.8,0.34375,1,76,14425.657894736842
LAE07,NO,1,14.9,6,5,4,3,5,3,0.25,0.25,0.75,0.5,0.25,0.25,0.25,0.25,4,4,4,4,3,1,1,0,1,1,8,13404,wise,wise,1452,3.8,0.34375,1,76,14425.657894736842
LAE07,NO,1,14.9,6,5,4,3,5,3,0.25,0.25,0.75,0.5,0.25,0.25,0.25,0.25,4,4,4,4,3,1,1,0,1,1,9,12898,heavy,heavy,2412,3.8,0.34375,1,76,14425.657894736842
LAE07,NO,1,14.9,6,5,4,3,5,3,0.25,0.25,0.75,0.5,0.25,0.25,0.25,0.25,4,4,4,4,3,1,1,0,1,1,10,18119,mystery,mystery,1171,3.8,0.34375,1,76,14425.657894736842
LAE07,NO,1,14.9,6,5,4,3,5,3,0.25,0.25,0.75,0.5,0.25,0.25,0.25,0.25,4,4,4,4,3,1,1,0,1,1,11,24836,backwards,backwards,667,3.8,0.34375,1,76,14425.657894736842
LAE07,NO,1,14.9,6,5,4,3,5,3,0.25,0.25,0.75,0.5,0.25,0.25,0.25,0.25,4,4,4,4,3,1,1,0,1,1,12,21977,wheat,wheat,293,3.8,0.34375,1,76,14425.657894736842
LAE07,NO,1,14.9,6,5,4,3,5,3,0.25,0.25,0.75,0.5,0.25,0.25,0.25,0.25,4,4,4,4,3,1,1,0,1,1,13,20085,resource,resource,83,3.8,0.34375,1,76,14425.657894736842
LAE07,NO,1,14.9,6,5,4,3,5,3,0.25,0.25,0.75,0.5,0.25,0.25,0.25,0.25,4,4,4,4,3,1,1,0,1,1,14,12055,choose,choose,2451,3.8,0.34375,1,76,14425.657894736842
LAE07,NO,1,14.9,6,5,4,3,5,3,0.25,0.25,0.75,0.5,0.25,0.25,0.25,0.25,4,4,4,4,3,1,1,0,1,1,15,19776,purched,perched,30,3.8,0.34375,0,76,14425.657894736842
LAE07,NO,1,14.9,6,5,4,3,5,3,0.25,0.25,0.75,0.5,0.25,0.25,0.25,0.25,4,4,4,4,3,1,1,0,1,1,16,15541,several,several,1978,3.8,0.34375,1,76,14425.657894736842
LAE07,NO,1,14.9,6,5,4,3,5,3,0.25,0.25,0.75,0.5,0.25,0.25,0.25,0.25,4,4,4,4,3,1,1,0,1,1,17,12293,grown,grown,1275,3.8,0.34375,1,76,14425.657894736842
LAE07,NO,1,14.9,6,5,4,3,5,3,0.25,0.25,0.75,0.5,0.25,0.25,0.25,0.25,4,4,4,4,3,1,1,0,1,1,18,12498,thumb,thumb,603,3.8,0.34375,1,76,14425.657894736842
LAE07,NO,1,14.9,6,5,4,3,5,3,0.25,0.25,0.75,0.5,0.25,0.25,0.25,0.25,4,4,4,4,3,1,1,0,1,1,19,10689,nice,nice,33125,3.8,0.34375,1,76,14425.657894736842
LAE07,NO,1,14.9,6,5,4,3,5,3,0.25,0.25,0.75,0.5,0.25,0.25,0.25,0.25,4,4,4,4,3,1,1,0,1,1,20,11063,keep,keep,35846,3.8,0.34375,1,76,14425.657894736842
LAE07,NO,1,14.9,6,5,4,3,5,3,0.25,0.25,0.75,0.5,0.25,0.25,0.25,0.25,4,4,4,4,3,1,1,0,1,1,21,11376,travel,travel,1702,3.8,0.34375,1,76,14425.657894736842
LAE07,NO,1,14.9,6,5,4,3,5,3,0.25,0.25,0.75,0.5,0.25,0.25,0.25,0.25,4,4,4,4,3,1,1,0,1,1,22,11642,every,every,28007,3.8,0.34375,1,76,14425.657894736842
LAE07,NO,1,14.9,6,5,4,3,5,3,0.25,0.25,0.75,0.5,0.25,0.25,0.25,0.25,4,4,4,4,3,1,1,0,1,1,23,12116,answer,answer,8986,3.8,0.34375,1,76,14425.657894736842
LAE07,NO,1,14.9,6,5,4,3,5,3,0.25,0.25,0.75,0.5,0.25,0.25,0.25,0.25,4,4,4,4,3,1,1,0,1,1,24,13767,tape,tape,3511,3.8,0.34375,1,76,14425.657894736842
LAE07,NO,1,14.9,6,5,4,3,5,3,0.25,0.25,0.75,0.5,0.25,0.25,0.25,0.25,4,4,4,4,3,1,1,0,1,1,25,1243,smoke,smoke,3337,3.8,0.34375,1,76,14425.657894736842
LAE07,NO,1,14.9,6,5,4,3,5,3,0.25,0.25,0.75,0.5,0.25,0.25,0.25,0.25,4,4,4,4,3,1,1,0,1,1,26,10607,ghost,ghost,1866,3.8,0.34375,1,76,14425.657894736842
LAE07,NO,1,14.9,6,5,4,3,5,3,0.25,0.25,0.75,0.5,0.25,0.25,0.25,0.25,4,4,4,4,3,1,1,0,1,1,27,12126,salad,salad,868,3.8,0.34375,1,76,14425.657894736842
LAE07,NO,1,14.9,6,5,4,3,5,3,0.25,0.25,0.75,0.5,0.25,0.25,0.25,0.25,4,4,4,4,3,1,1,0,1,1,28,9723,word,word,12013,3.8,0.34375,1,76,14425.657894736842
LAE07,NO,1,14.9,6,5,4,3,5,3,0.25,0.25,0.75,0.5,0.25,0.25,0.25,0.25,4,4,4,4,3,1,1,0,1,1,29,25967,pavement,pavement,103,3.8,0.34375,1,76,14425.657894736842
LAE07,NO,1,14.9,6,5,4,3,5,3,0.25,0.25,0.75,0.5,0.25,0.25,0.25,0.25,4,4,4,4,3,1,1,0,1,1,30,11315,important,important,10587,3.8,0.34375,1,76,14425.657894736842
LAE07,NO,1,14.9,6,5,4,3,5,3,0.25,0.25,0.75,0.5,0.25,0.25,0.25,0.25,4,4,4,4,3,1,1,0,1,1,31,15414,street,street,7557,3.8,0.34375,1,76,14425.657894736842
LAE07,NO,1,14.9,6,5,4,3,5,3,0.25,0.25,0.75,0.5,0.25,0.25,0.25,0.25,4,4,4,4,3,1,1,0,1,1,32,15311,condense,condense,14,3.8,0.34375,1,76,14425.657894736842
LAE07,NO,1,14.9,6,5,4,3,5,3,0.25,0.25,0.75,0.5,0.25,0.25,0.25,0.25,4,4,4,4,3,1,1,0,1,1,33,12444,muscle,muscle,694,3.8,0.34375,1,76,14425.657894736842
LAE07,NO,1,14.9,6,5,4,3,5,3,0.25,0.25,0.75,0.5,0.25,0.25,0.25,0.25,4,4,4,4,3,1,1,0,1,1,34,17733,sheep,sheep,685,3.8,0.34375,1,76,14425.657894736842
LAE07,NO,1,14.9,6,5,4,3,5,3,0.25,0.25,0.75,0.5,0.25,0.25,0.25,0.25,4,4,4,4,3,1,1,0,1,1,35,1131,need,need,66040,3.8,0.34375,1,76,14425.657894736842
LAE07,NO,1,14.9,6,5,4,3,5,3,0.25,0.25,0.75,0.5,0.25,0.25,0.25,0.25,4,4,4,4,3,1,1,0,1,1,36,12525,please,please,56149,3.8,0.34375,1,76,14425.657894736842
LAE07,NO,1,14.9,6,5,4,3,5,3,0.25,0.25,0.75,0.5,0.25,0.25,0.25,0.25,4,4,4,4,3,1,1,0,1,1,37,10839,wagon,wagon,906,3.8,0.34375,1,76,14425.657894736842
LAE07,NO,1,14.9,6,5,4,3,5,3,0.25,0.25,0.75,0.5,0.25,0.25,0.25,0.25,4,4,4,4,3,1,1,0,1,1,38,17893,culprit,culprit,55,3.8,0.34375,1,76,14425.657894736842
LAE07,NO,1,14.9,6,5,4,3,5,3,0.25,0.25,0.75,0.5,0.25,0.25,0.25,0.25,4,4,4,4,3,1,1,0,1,1,39,20614,engine,engine,1626,3.8,0.34375,1,76,14425.657894736842
LAE07,NO,1,14.9,6,5,4,3,5,3,0.25,0.25,0.75,0.5,0.25,0.25,0.25,0.25,4,4,4,4,3,1,1,0,1,1,40,2245,easy,easy,13551,3.8,0.34375,1,76,14425.657894736842
LAE07,NO,1,14.9,6,5,4,3,5,3,0.25,0.25,0.75,0.5,0.25,0.25,0.25,0.25,4,4,4,4,3,1,1,0,1,1,41,16294,believe,believe,31882,3.8,0.34375,1,76,14425.657894736842
LAE07,NO,1,14.9,6,5,4,3,5,3,0.25,0.25,0.75,0.5,0.25,0.25,0.25,0.25,4,4,4,4,3,1,1,0,1,1,42,2428,hurt,hurt,12564,3.8,0.34375,1,76,14425.657894736842
LAE07,NO,1,14.9,6,5,4,3,5,3,0.25,0.25,0.75,0.5,0.25,0.25,0.25,0.25,4,4,4,4,3,1,1,0,1,1,43,10683,hole,hole,2969,3.8,0.34375,1,76,14425.657894736842
LAE07,NO,1,14.9,6,5,4,3,5,3,0.25,0.25,0.75,0.5,0.25,0.25,0.25,0.25,4,4,4,4,3,1,1,0,1,1,44,14523,basement,basement,1074,3.8,0.34375,1,76,14425.657894736842
LAE07,NO,1,14.9,6,5,4,3,5,3,0.25,0.25,0.75,0.5,0.25,0.25,0.25,0.25,4,4,4,4,3,1,1,0,1,1,45,10327,faught,fought,1362,3.8,0.34375,0,76,14425.657894736842
LAE07,NO,1,14.9,6,5,4,3,5,3,0.25,0.25,0.75,0.5,0.25,0.25,0.25,0.25,4,4,4,4,3,1,1,0,1,1,46,10354,study,study,2501,3.8,0.34375,1,76,14425.657894736842
LAE07,NO,1,14.9,6,5,4,3,5,3,0.25,0.25,0.75,0.5,0.25,0.25,0.25,0.25,4,4,4,4,3,1,1,0,1,1,47,10759,example,example,1527,3.8,0.34375,1,76,14425.657894736842
LAE07,NO,1,14.9,6,5,4,3,5,3,0.25,0.25,0.75,0.5,0.25,0.25,0.25,0.25,4,4,4,4,3,1,1,0,1,1,48,14921,toward,toward,1169,3.8,0.34375,1,76,14425.657894736842
LAE07,NO,1,14.9,6,5,4,3,5,3,0.25,0.25,0.75,0.5,0.25,0.25,0.25,0.25,4,4,4,4,3,1,1,0,1,1,49,9806,vero,vero,NA,3.8,0.34375,1,76,14425.657894736842
LAE07,NO,1,14.9,6,5,4,3,5,3,0.25,0.25,0.75,0.5,0.25,0.25,0.25,0.25,4,4,4,4,3,1,1,0,1,1,50,11005,skate,skate,301,3.8,0.34375,1,76,14425.657894736842
LAE07,NO,1,14.9,6,5,4,3,5,3,0.25,0.25,0.75,0.5,0.25,0.25,0.25,0.25,4,4,4,4,3,1,1,0,1,1,51,44779,nostrils,nostrils,82,3.8,0.34375,1,76,14425.657894736842
LAE07,NO,1,14.9,6,5,4,3,5,3,0.25,0.25,0.75,0.5,0.25,0.25,0.25,0.25,4,4,4,4,3,1,1,0,1,1,52,15964,dream,dream,6798,3.8,0.34375,1,76,14425.657894736842
LAE07,NO,1,14.9,6,5,4,3,5,3,0.25,0.25,0.75,0.5,0.25,0.25,0.25,0.25,4,4,4,4,3,1,1,0,1,1,53,11691,applause,applause,576,3.8,0.34375,1,76,14425.657894736842
LAE07,NO,1,14.9,6,5,4,3,5,3,0.25,0.25,0.75,0.5,0.25,0.25,0.25,0.25,4,4,4,4,3,1,1,0,1,1,54,16455,coat,coat,2146,3.8,0.34375,1,76,14425.657894736842
LAE07,NO,1,14.9,6,5,4,3,5,3,0.25,0.25,0.75,0.5,0.25,0.25,0.25,0.25,4,4,4,4,3,1,1,0,1,1,55,15404,sudden,sudden,1707,3.8,0.34375,1,76,14425.657894736842
LAE07,NO,1,14.9,6,5,4,3,5,3,0.25,0.25,0.75,0.5,0.25,0.25,0.25,0.25,4,4,4,4,3,1,1,0,1,1,56,1684,sensitive,sensitive,1149,3.8,0.34375,1,76,14425.657894736842
LAE07,NO,1,14.9,6,5,4,3,5,3,0.25,0.25,0.75,0.5,0.25,0.25,0.25,0.25,4,4,4,4,3,1,1,0,1,1,57,12922,face,face,14747,3.8,0.34375,1,76,14425.657894736842
LAE07,NO,1,14.9,6,5,4,3,5,3,0.25,0.25,0.75,0.5,0.25,0.25,0.25,0.25,4,4,4,4,3,1,1,0,1,1,58,10368,captain,captain,10622,3.8,0.34375,1,76,14425.657894736842
LAE07,NO,1,14.9,6,5,4,3,5,3,0.25,0.25,0.75,0.5,0.25,0.25,0.25,0.25,4,4,4,4,3,1,1,0,1,1,59,965,between,between,8932,3.8,0.34375,1,76,14425.657894736842
LAE07,NO,1,14.9,6,5,4,3,5,3,0.25,0.25,0.75,0.5,0.25,0.25,0.25,0.25,4,4,4,4,3,1,1,0,1,1,60,23161,trousers,trousers,263,3.8,0.34375,1,76,14425.657894736842
LAE07,NO,1,14.9,6,5,4,3,5,3,0.25,0.25,0.75,0.5,0.25,0.25,0.25,0.25,4,4,4,4,3,1,1,0,1,1,61,9819,deep,deep,3896,3.8,0.34375,1,76,14425.657894736842
LAE07,NO,1,14.9,6,5,4,3,5,3,0.25,0.25,0.75,0.5,0.25,0.25,0.25,0.25,4,4,4,4,3,1,1,0,1,1,62,12686,scare,scare,1712,3.8,0.34375,1,76,14425.657894736842
LAE07,NO,1,14.9,6,5,4,3,5,3,0.25,0.25,0.75,0.5,0.25,0.25,0.25,0.25,4,4,4,4,3,1,1,0,1,1,63,11566,assure,assure,1021,3.8,0.34375,1,76,14425.657894736842
LAE07,NO,1,14.9,6,5,4,3,5,3,0.25,0.25,0.75,0.5,0.25,0.25,0.25,0.25,4,4,4,4,3,1,1,0,1,1,64,31642,rore,roar,205,3.8,0.34375,0,76,14425.657894736842
LAE07,NO,1,14.9,6,5,4,3,5,3,0.25,0.25,0.75,0.5,0.25,0.25,0.25,0.25,4,4,4,4,3,1,1,0,1,1,65,13085,store,store,4178,3.8,0.34375,1,76,14425.657894736842
LAE07,NO,1,14.9,6,5,4,3,5,3,0.25,0.25,0.75,0.5,0.25,0.25,0.25,0.25,4,4,4,4,3,1,1,0,1,1,66,11804,interesting,interesting,4421,3.8,0.34375,1,76,14425.657894736842
LAE07,NO,1,14.9,6,5,4,3,5,3,0.25,0.25,0.75,0.5,0.25,0.25,0.25,0.25,4,4,4,4,3,1,1,0,1,1,67,47808,stream,stream,410,3.8,0.34375,1,76,14425.657894736842
LAE07,NO,1,14.9,6,5,4,3,5,3,0.25,0.25,0.75,0.5,0.25,0.25,0.25,0.25,4,4,4,4,3,1,1,0,1,1,68,1228,wait,wait,42343,3.8,0.34375,1,76,14425.657894736842
LAE07,NO,1,14.9,6,5,4,3,5,3,0.25,0.25,0.75,0.5,0.25,0.25,0.25,0.25,4,4,4,4,3,1,1,0,1,1,69,13637,alternative,alternative,476,3.8,0.34375,1,76,14425.657894736842
LAE07,NO,1,14.9,6,5,4,3,5,3,0.25,0.25,0.75,0.5,0.25,0.25,0.25,0.25,4,4,4,4,3,1,1,0,1,1,70,11396,few,few,15393,3.8,0.34375,1,76,14425.657894736842
LAE07,NO,1,14.9,6,5,4,3,5,3,0.25,0.25,0.75,0.5,0.25,0.25,0.25,0.25,4,4,4,4,3,1,1,0,1,1,71,9721,goat,goat,537,3.8,0.34375,1,76,14425.657894736842
LAE07,NO,1,14.9,6,5,4,3,5,3,0.25,0.25,0.75,0.5,0.25,0.25,0.25,0.25,4,4,4,4,3,1,1,0,1,1,72,14686,demon,demon,1593,3.8,0.34375,1,76,14425.657894736842
LAE07,NO,1,14.9,6,5,4,3,5,3,0.25,0.25,0.75,0.5,0.25,0.25,0.25,0.25,4,4,4,4,3,1,1,0,1,1,73,1083,libberty,liberty,849,3.8,0.34375,0,76,14425.657894736842
LAE07,NO,1,14.9,6,5,4,3,5,3,0.25,0.25,0.75,0.5,0.25,0.25,0.25,0.25,4,4,4,4,3,1,1,0,1,1,74,30289,rain,rain,2494,3.8,0.34375,1,76,14425.657894736842
LAE07,NO,1,14.9,6,5,4,3,5,3,0.25,0.25,0.75,0.5,0.25,0.25,0.25,0.25,4,4,4,4,3,1,1,0,1,1,75,16852,dignity,dignity,551,3.8,0.34375,1,76,14425.657894736842
LAE07,NO,1,14.9,6,5,4,3,5,3,0.25,0.25,0.75,0.5,0.25,0.25,0.25,0.25,4,4,4,4,3,1,1,0,1,1,76,10841,hearth,hearth,34,3.8,0.34375,1,76,14425.657894736842
LAE07,NO,1,14.9,6,5,4,3,5,3,0.25,0.25,0.75,0.5,0.25,0.25,0.25,0.25,4,4,4,4,3,1,1,0,1,1,77,1060,compliment,compliment,523,3.8,0.34375,1,76,14425.657894736842
LAE07,NO,1,14.9,6,5,4,3,5,3,0.25,0.25,0.75,0.5,0.25,0.25,0.25,0.25,4,4,4,4,3,1,1,0,1,1,78,9646,learn,learn,6047,3.8,0.34375,1,76,14425.657894736842
LAE07,NO,1,14.9,6,5,4,3,5,3,0.25,0.25,0.75,0.5,0.25,0.25,0.25,0.25,4,4,4,4,3,1,1,0,1,1,79,39805,wreath,wreath,54,3.8,0.34375,1,76,14425.657894736842
LAE07,NO,1,14.9,6,5,4,3,5,3,0.25,0.25,0.75,0.5,0.25,0.25,0.25,0.25,4,4,4,4,3,1,1,0,1,1,80,13019,explain,explain,5670,3.8,0.34375,1,76,14425.657894736842
LAE08,NO,1,14.11,6,4,3,4,3,3,0,0,0.25,0,0.25,0.25,0.25,0,1,2,0,3,2,2,2,1,4,2,1,10907,vero,vero,NA,1.6,0.125,1,72,19982.527777777777
LAE08,NO,1,14.11,6,4,3,4,3,3,0,0,0.25,0,0.25,0.25,0.25,0,1,2,0,3,2,2,2,1,4,2,2,9713,rain,rain,2494,1.6,0.125,1,72,19982.527777777777
LAE08,NO,1,14.11,6,4,3,4,3,3,0,0,0.25,0,0.25,0.25,0.25,0,1,2,0,3,2,2,2,1,4,2,3,12799,smoke,smoke,3337,1.6,0.125,1,72,19982.527777777777
LAE08,NO,1,14.11,6,4,3,4,3,3,0,0,0.25,0,0.25,0.25,0.25,0,1,2,0,3,2,2,2,1,4,2,4,8572,need,need,66040,1.6,0.125,1,72,19982.527777777777
LAE08,NO,1,14.11,6,4,3,4,3,3,0,0,0.25,0,0.25,0.25,0.25,0,1,2,0,3,2,2,2,1,4,2,5,12756,muscle,muscle,694,1.6,0.125,1,72,19982.527777777777
LAE08,NO,1,14.11,6,4,3,4,3,3,0,0,0.25,0,0.25,0.25,0.25,0,1,2,0,3,2,2,2,1,4,2,6,18763,liberty,liberty,849,1.6,0.125,1,72,19982.527777777777
LAE08,NO,1,14.11,6,4,3,4,3,3,0,0,0.25,0,0.25,0.25,0.25,0,1,2,0,3,2,2,2,1,4,2,7,24282,nusance,nuisance,164,1.6,0.125,0,72,19982.527777777777
LAE08,NO,1,14.11,6,4,3,4,3,3,0,0,0.25,0,0.25,0.25,0.25,0,1,2,0,3,2,2,2,1,4,2,8,8728,keep,keep,35846,1.6,0.125,1,72,19982.527777777777
LAE08,NO,1,14.11,6,4,3,4,3,3,0,0,0.25,0,0.25,0.25,0.25,0,1,2,0,3,2,2,2,1,4,2,9,10275,believe,believe,31882,1.6,0.125,1,72,19982.527777777777
LAE08,NO,1,14.11,6,4,3,4,3,3,0,0,0.25,0,0.25,0.25,0.25,0,1,2,0,3,2,2,2,1,4,2,10,1708,sudden,sudden,1707,1.6,0.125,1,72,19982.527777777777
LAE08,NO,1,14.11,6,4,3,4,3,3,0,0,0.25,0,0.25,0.25,0.25,0,1,2,0,3,2,2,2,1,4,2,11,19087,learn,learn,6047,1.6,0.125,1,72,19982.527777777777
LAE08,NO,1,14.11,6,4,3,4,3,3,0,0,0.25,0,0.25,0.25,0.25,0,1,2,0,3,2,2,2,1,4,2,12,16193,ghost,ghost,1866,1.6,0.125,1,72,19982.527777777777
LAE08,NO,1,14.11,6,4,3,4,3,3,0,0,0.25,0,0.25,0.25,0.25,0,1,2,0,3,2,2,2,1,4,2,13,45883,dignity,dignity,551,1.6,0.125,1,72,19982.527777777777
LAE08,NO,1,14.11,6,4,3,4,3,3,0,0,0.25,0,0.25,0.25,0.25,0,1,2,0,3,2,2,2,1,4,2,14,14918,please,please,56149,1.6,0.125,1,72,19982.527777777777
LAE08,NO,1,14.11,6,4,3,4,3,3,0,0,0.25,0,0.25,0.25,0.25,0,1,2,0,3,2,2,2,1,4,2,15,24997,travel,travel,1702,1.6,0.125,1,72,19982.527777777777
LAE08,NO,1,14.11,6,4,3,4,3,3,0,0,0.25,0,0.25,0.25,0.25,0,1,2,0,3,2,2,2,1,4,2,16,40681,hearth,hearth,34,1.6,0.125,1,72,19982.527777777777
LAE08,NO,1,14.11,6,4,3,4,3,3,0,0,0.25,0,0.25,0.25,0.25,0,1,2,0,3,2,2,2,1,4,2,17,30049,assure,assure,1021,1.6,0.125,1,72,19982.527777777777
LAE08,NO,1,14.11,6,4,3,4,3,3,0,0,0.25,0,0.25,0.25,0.25,0,1,2,0,3,2,2,2,1,4,2,18,23315,distance,distance,1306,1.6,0.125,1,72,19982.527777777777
LAE08,NO,1,14.11,6,4,3,4,3,3,0,0,0.25,0,0.25,0.25,0.25,0,1,2,0,3,2,2,2,1,4,2,19,11565,deep,deep,3896,1.6,0.125,1,72,19982.527777777777
LAE08,NO,1,14.11,6,4,3,4,3,3,0,0,0.25,0,0.25,0.25,0.25,0,1,2,0,3,2,2,2,1,4,2,20,12918,salmon,salmon,334,1.6,0.125,1,72,19982.527777777777
LAE08,NO,1,14.11,6,4,3,4,3,3,0,0,0.25,0,0.25,0.25,0.25,0,1,2,0,3,2,2,2,1,4,2,21,14274,study,study,2501,1.6,0.125,1,72,19982.527777777777
LAE08,NO,1,14.11,6,4,3,4,3,3,0,0,0.25,0,0.25,0.25,0.25,0,1,2,0,3,2,2,2,1,4,2,22,26294,demon,demon,1593,1.6,0.125,1,72,19982.527777777777
LAE08,NO,1,14.11,6,4,3,4,3,3,0,0,0.25,0,0.25,0.25,0.25,0,1,2,0,3,2,2,2,1,4,2,23,30928,sensitive,sensitive,1149,1.6,0.125,1,72,19982.527777777777
LAE08,NO,1,14.11,6,4,3,4,3,3,0,0,0.25,0,0.25,0.25,0.25,0,1,2,0,3,2,2,2,1,4,2,24,1604,word,word,12013,1.6,0.125,1,72,19982.527777777777
LAE08,NO,1,14.11,6,4,3,4,3,3,0,0,0.25,0,0.25,0.25,0.25,0,1,2,0,3,2,2,2,1,4,2,25,27721,trousers,trousers,263,1.6,0.125,1,72,19982.527777777777
LAE08,NO,1,14.11,6,4,3,4,3,3,0,0,0.25,0,0.25,0.25,0.25,0,1,2,0,3,2,2,2,1,4,2,26,13866,hole,hole,2969,1.6,0.125,1,72,19982.527777777777
LAE08,NO,1,14.11,6,4,3,4,3,3,0,0,0.25,0,0.25,0.25,0.25,0,1,2,0,3,2,2,2,1,4,2,27,12432,every,every,28007,1.6,0.125,1,72,19982.527777777777
LAE08,NO,1,14.11,6,4,3,4,3,3,0,0,0.25,0,0.25,0.25,0.25,0,1,2,0,3,2,2,2,1,4,2,28,26279,senators,senators,120,1.6,0.125,1,72,19982.527777777777
LAE08,NO,1,14.11,6,4,3,4,3,3,0,0,0.25,0,0.25,0.25,0.25,0,1,2,0,3,2,2,2,1,4,2,29,21245,sleep,sleep,11625,1.6,0.125,1,72,19982.527777777777
LAE08,NO,1,14.11,6,4,3,4,3,3,0,0,0.25,0,0.25,0.25,0.25,0,1,2,0,3,2,2,2,1,4,2,30,16998,wait,wait,42343,1.6,0.125,1,72,19982.527777777777
LAE08,NO,1,14.11,6,4,3,4,3,3,0,0,0.25,0,0.25,0.25,0.25,0,1,2,0,3,2,2,2,1,4,2,31,11955,easy,easy,13551,1.6,0.125,1,72,19982.527777777777
LAE08,NO,1,14.11,6,4,3,4,3,3,0,0,0.25,0,0.25,0.25,0.25,0,1,2,0,3,2,2,2,1,4,2,32,25636,nostrels,nostrils,82,1.6,0.125,0,72,19982.527777777777
LAE08,NO,1,14.11,6,4,3,4,3,3,0,0,0.25,0,0.25,0.25,0.25,0,1,2,0,3,2,2,2,1,4,2,33,13408,answer,answer,8986,1.6,0.125,1,72,19982.527777777777
LAE08,NO,1,14.11,6,4,3,4,3,3,0,0,0.25,0,0.25,0.25,0.25,0,1,2,0,3,2,2,2,1,4,2,34,19638,tape,tape,3511,1.6,0.125,1,72,19982.527777777777
LAE08,NO,1,14.11,6,4,3,4,3,3,0,0,0.25,0,0.25,0.25,0.25,0,1,2,0,3,2,2,2,1,4,2,35,30685,toward,toward,1169,1.6,0.125,1,72,19982.527777777777
LAE08,NO,1,14.11,6,4,3,4,3,3,0,0,0.25,0,0.25,0.25,0.25,0,1,2,0,3,2,2,2,1,4,2,36,25952,backwords,backwards,667,1.6,0.125,0,72,19982.527777777777
LAE08,NO,1,14.11,6,4,3,4,3,3,0,0,0.25,0,0.25,0.25,0.25,0,1,2,0,3,2,2,2,1,4,2,37,23482,thumb,thumb,603,1.6,0.125,1,72,19982.527777777777
LAE08,NO,1,14.11,6,4,3,4,3,3,0,0,0.25,0,0.25,0.25,0.25,0,1,2,0,3,2,2,2,1,4,2,38,3308,condence,condense,14,1.6,0.125,0,72,19982.527777777777
LAE08,NO,1,14.11,6,4,3,4,3,3,0,0,0.25,0,0.25,0.25,0.25,0,1,2,0,3,2,2,2,1,4,2,39,10603,face,face,14747,1.6,0.125,1,72,19982.527777777777
LAE08,NO,1,14.11,6,4,3,4,3,3,0,0,0.25,0,0.25,0.25,0.25,0,1,2,0,3,2,2,2,1,4,2,40,15322,engine,engine,1626,1.6,0.125,1,72,19982.527777777777
LAE08,NO,1,14.11,6,4,3,4,3,3,0,0,0.25,0,0.25,0.25,0.25,0,1,2,0,3,2,2,2,1,4,2,41,27966,explain,explain,5670,1.6,0.125,1,72,19982.527777777777
LAE08,NO,1,14.11,6,4,3,4,3,3,0,0,0.25,0,0.25,0.25,0.25,0,1,2,0,3,2,2,2,1,4,2,42,33392,culpert,culprit,55,1.6,0.125,0,72,19982.527777777777
LAE08,NO,1,14.11,6,4,3,4,3,3,0,0,0.25,0,0.25,0.25,0.25,0,1,2,0,3,2,2,2,1,4,2,43,18122,coat,coat,2146,1.6,0.125,1,72,19982.527777777777
LAE08,NO,1,14.11,6,4,3,4,3,3,0,0,0.25,0,0.25,0.25,0.25,0,1,2,0,3,2,2,2,1,4,2,44,14671,wagon,wagon,906,1.6,0.125,1,72,19982.527777777777
LAE08,NO,1,14.11,6,4,3,4,3,3,0,0,0.25,0,0.25,0.25,0.25,0,1,2,0,3,2,2,2,1,4,2,45,14873,dreem,dream,6798,1.6,0.125,0,72,19982.527777777777
LAE08,NO,1,14.11,6,4,3,4,3,3,0,0,0.25,0,0.25,0.25,0.25,0,1,2,0,3,2,2,2,1,4,2,46,24041,stream,stream,410,1.6,0.125,1,72,19982.527777777777
LAE08,NO,1,14.11,6,4,3,4,3,3,0,0,0.25,0,0.25,0.25,0.25,0,1,2,0,3,2,2,2,1,4,2,47,11807,lake,lake,1836,1.6,0.125,1,72,19982.527777777777
LAE08,NO,1,14.11,6,4,3,4,3,3,0,0,0.25,0,0.25,0.25,0.25,0,1,2,0,3,2,2,2,1,4,2,48,17409,mystery,mystery,1171,1.6,0.125,1,72,19982.527777777777
LAE08,NO,1,14.11,6,4,3,4,3,3,0,0,0.25,0,0.25,0.25,0.25,0,1,2,0,3,2,2,2,1,4,2,49,22925,wheat,wheat,293,1.6,0.125,1,72,19982.527777777777
LAE08,NO,1,14.11,6,4,3,4,3,3,0,0,0.25,0,0.25,0.25,0.25,0,1,2,0,3,2,2,2,1,4,2,50,18924,compliment,compliment,523,1.6,0.125,1,72,19982.527777777777
LAE08,NO,1,14.11,6,4,3,4,3,3,0,0,0.25,0,0.25,0.25,0.25,0,1,2,0,3,2,2,2,1,4,2,51,13403,example,example,1527,1.6,0.125,1,72,19982.527777777777
LAE08,NO,1,14.11,6,4,3,4,3,3,0,0,0.25,0,0.25,0.25,0.25,0,1,2,0,3,2,2,2,1,4,2,52,27086,applause,applause,576,1.6,0.125,1,72,19982.527777777777
LAE08,NO,1,14.11,6,4,3,4,3,3,0,0,0.25,0,0.25,0.25,0.25,0,1,2,0,3,2,2,2,1,4,2,53,16917,several,several,1978,1.6,0.125,1,72,19982.527777777777
LAE08,NO,1,14.11,6,4,3,4,3,3,0,0,0.25,0,0.25,0.25,0.25,0,1,2,0,3,2,2,2,1,4,2,54,65559,interesting,interesting,4421,1.6,0.125,1,72,19982.527777777777
LAE08,NO,1,14.11,6,4,3,4,3,3,0,0,0.25,0,0.25,0.25,0.25,0,1,2,0,3,2,2,2,1,4,2,55,14842,wize,wise,1452,1.6,0.125,0,72,19982.527777777777
LAE08,NO,1,14.11,6,4,3,4,3,3,0,0,0.25,0,0.25,0.25,0.25,0,1,2,0,3,2,2,2,1,4,2,56,18122,scare,scare,1712,1.6,0.125,1,72,19982.527777777777
LAE08,NO,1,14.11,6,4,3,4,3,3,0,0,0.25,0,0.25,0.25,0.25,0,1,2,0,3,2,2,2,1,4,2,57,36846,fought,fought,1362,1.6,0.125,1,72,19982.527777777777
LAE08,NO,1,14.11,6,4,3,4,3,3,0,0,0.25,0,0.25,0.25,0.25,0,1,2,0,3,2,2,2,1,4,2,58,15559,salad,salad,868,1.6,0.125,1,72,19982.527777777777
LAE08,NO,1,14.11,6,4,3,4,3,3,0,0,0.25,0,0.25,0.25,0.25,0,1,2,0,3,2,2,2,1,4,2,59,19006,resource,resource,83,1.6,0.125,1,72,19982.527777777777
LAE08,NO,1,14.11,6,4,3,4,3,3,0,0,0.25,0,0.25,0.25,0.25,0,1,2,0,3,2,2,2,1,4,2,60,10836,store,store,4178,1.6,0.125,1,72,19982.527777777777
LAE08,NO,1,14.11,6,4,3,4,3,3,0,0,0.25,0,0.25,0.25,0.25,0,1,2,0,3,2,2,2,1,4,2,61,23793,important,important,10587,1.6,0.125,1,72,19982.527777777777
LAE08,NO,1,14.11,6,4,3,4,3,3,0,0,0.25,0,0.25,0.25,0.25,0,1,2,0,3,2,2,2,1,4,2,62,11937,take,take,96443,1.6,0.125,1,72,19982.527777777777
LAE08,NO,1,14.11,6,4,3,4,3,3,0,0,0.25,0,0.25,0.25,0.25,0,1,2,0,3,2,2,2,1,4,2,63,16937,basement,basement,1074,1.6,0.125,1,72,19982.527777777777
LAE08,NO,1,14.11,6,4,3,4,3,3,0,0,0.25,0,0.25,0.25,0.25,0,1,2,0,3,2,2,2,1,4,2,64,16689,skate,skate,301,1.6,0.125,1,72,19982.527777777777
LAE08,NO,1,14.11,6,4,3,4,3,3,0,0,0.25,0,0.25,0.25,0.25,0,1,2,0,3,2,2,2,1,4,2,65,18201,nice,nice,33125,1.6,0.125,1,72,19982.527777777777
LAE08,NO,1,14.11,6,4,3,4,3,3,0,0,0.25,0,0.25,0.25,0.25,0,1,2,0,3,2,2,2,1,4,2,66,20522,sheep,sheep,685,1.6,0.125,1,72,19982.527777777777
LAE08,NO,1,14.11,6,4,3,4,3,3,0,0,0.25,0,0.25,0.25,0.25,0,1,2,0,3,2,2,2,1,4,2,67,35406,purched,perched,30,1.6,0.125,0,72,19982.527777777777
LAE08,NO,1,14.11,6,4,3,4,3,3,0,0,0.25,0,0.25,0.25,0.25,0,1,2,0,3,2,2,2,1,4,2,68,27804,grown,grown,1275,1.6,0.125,1,72,19982.527777777777
LAE08,NO,1,14.11,6,4,3,4,3,3,0,0,0.25,0,0.25,0.25,0.25,0,1,2,0,3,2,2,2,1,4,2,69,63324,alternative,alternative,476,1.6,0.125,1,72,19982.527777777777
LAE08,NO,1,14.11,6,4,3,4,3,3,0,0,0.25,0,0.25,0.25,0.25,0,1,2,0,3,2,2,2,1,4,2,70,15961,heavy,heavy,2412,1.6,0.125,1,72,19982.527777777777
LAE08,NO,1,14.11,6,4,3,4,3,3,0,0,0.25,0,0.25,0.25,0.25,0,1,2,0,3,2,2,2,1,4,2,71,22363,between,between,8932,1.6,0.125,1,72,19982.527777777777
LAE08,NO,1,14.11,6,4,3,4,3,3,0,0,0.25,0,0.25,0.25,0.25,0,1,2,0,3,2,2,2,1,4,2,72,23233,goat,goat,537,1.6,0.125,1,72,19982.527777777777
LAE08,NO,1,14.11,6,4,3,4,3,3,0,0,0.25,0,0.25,0.25,0.25,0,1,2,0,3,2,2,2,1,4,2,73,17009,few,few,15393,1.6,0.125,1,72,19982.527777777777
LAE08,NO,1,14.11,6,4,3,4,3,3,0,0,0.25,0,0.25,0.25,0.25,0,1,2,0,3,2,2,2,1,4,2,74,12763,choose,choose,2451,1.6,0.125,1,72,19982.527777777777
LAE08,NO,1,14.11,6,4,3,4,3,3,0,0,0.25,0,0.25,0.25,0.25,0,1,2,0,3,2,2,2,1,4,2,75,13246,roar,roar,205,1.6,0.125,1,72,19982.527777777777
LAE08,NO,1,14.11,6,4,3,4,3,3,0,0,0.25,0,0.25,0.25,0.25,0,1,2,0,3,2,2,2,1,4,2,76,19483,captain,captain,10622,1.6,0.125,1,72,19982.527777777777
LAE08,NO,1,14.11,6,4,3,4,3,3,0,0,0.25,0,0.25,0.25,0.25,0,1,2,0,3,2,2,2,1,4,2,77,15343,hurt,hurt,12564,1.6,0.125,1,72,19982.527777777777
LAE08,NO,1,14.11,6,4,3,4,3,3,0,0,0.25,0,0.25,0.25,0.25,0,1,2,0,3,2,2,2,1,4,2,78,29958,pavement,pavement,103,1.6,0.125,1,72,19982.527777777777
LAE08,NO,1,14.11,6,4,3,4,3,3,0,0,0.25,0,0.25,0.25,0.25,0,1,2,0,3,2,2,2,1,4,2,79,12838,street,street,7557,1.6,0.125,1,72,19982.527777777777
LAE08,NO,1,14.11,6,4,3,4,3,3,0,0,0.25,0,0.25,0.25,0.25,0,1,2,0,3,2,2,2,1,4,2,80,27578,wreath,wreath,54,1.6,0.125,1,72,19982.527777777777
LAE09,NO,4,17.11,6,3,4,5,4,3,0,0,0.75,0.5,0.5,0.75,1,1,4,2,0,4,4,2,3,0,4,1,1,3651,culprit,culprit,55,2.8,0.5625,1,79,15409.20253164557
LAE09,NO,4,17.11,6,3,4,5,4,3,0,0,0.75,0.5,0.5,0.75,1,1,4,2,0,4,4,2,3,0,4,1,2,25618,face,face,14747,2.8,0.5625,1,79,15409.20253164557
LAE09,NO,4,17.11,6,3,4,5,4,3,0,0,0.75,0.5,0.5,0.75,1,1,4,2,0,4,4,2,3,0,4,1,3,28576,interesting,interesting,4421,2.8,0.5625,1,79,15409.20253164557
LAE09,NO,4,17.11,6,3,4,5,4,3,0,0,0.75,0.5,0.5,0.75,1,1,4,2,0,4,4,2,3,0,4,1,4,10837,nice,nice,33125,2.8,0.5625,1,79,15409.20253164557
LAE09,NO,4,17.11,6,3,4,5,4,3,0,0,0.75,0.5,0.5,0.75,1,1,4,2,0,4,4,2,3,0,4,1,5,13078,salad,salad,868,2.8,0.5625,1,79,15409.20253164557
LAE09,NO,4,17.11,6,3,4,5,4,3,0,0,0.75,0.5,0.5,0.75,1,1,4,2,0,4,4,2,3,0,4,1,6,19002,mystery,mystery,1171,2.8,0.5625,1,79,15409.20253164557
LAE09,NO,4,17.11,6,3,4,5,4,3,0,0,0.75,0.5,0.5,0.75,1,1,4,2,0,4,4,2,3,0,4,1,7,13963,engine,engine,1626,2.8,0.5625,1,79,15409.20253164557
LAE09,NO,4,17.11,6,3,4,5,4,3,0,0,0.75,0.5,0.5,0.75,1,1,4,2,0,4,4,2,3,0,4,1,8,12366,deep,deep,3896,2.8,0.5625,1,79,15409.20253164557
LAE09,NO,4,17.11,6,3,4,5,4,3,0,0,0.75,0.5,0.5,0.75,1,1,4,2,0,4,4,2,3,0,4,1,9,28196,nuisance,nuisance,164,2.8,0.5625,1,79,15409.20253164557
LAE09,NO,4,17.11,6,3,4,5,4,3,0,0,0.75,0.5,0.5,0.75,1,1,4,2,0,4,4,2,3,0,4,1,10,13641,smoke,smoke,3337,2.8,0.5625,1,79,15409.20253164557
LAE09,NO,4,17.11,6,3,4,5,4,3,0,0,0.75,0.5,0.5,0.75,1,1,4,2,0,4,4,2,3,0,4,1,11,2516,senators,senators,120,2.8,0.5625,1,79,15409.20253164557
LAE09,NO,4,17.11,6,3,4,5,4,3,0,0,0.75,0.5,0.5,0.75,1,1,4,2,0,4,4,2,3,0,4,1,12,17558,captain,captain,10622,2.8,0.5625,1,79,15409.20253164557
LAE09,NO,4,17.11,6,3,4,5,4,3,0,0,0.75,0.5,0.5,0.75,1,1,4,2,0,4,4,2,3,0,4,1,13,12678,word,word,12013,2.8,0.5625,1,79,15409.20253164557
LAE09,NO,4,17.11,6,3,4,5,4,3,0,0,0.75,0.5,0.5,0.75,1,1,4,2,0,4,4,2,3,0,4,1,14,19636,trousers,trousers,263,2.8,0.5625,1,79,15409.20253164557
LAE09,NO,4,17.11,6,3,4,5,4,3,0,0,0.75,0.5,0.5,0.75,1,1,4,2,0,4,4,2,3,0,4,1,15,13317,hole,hole,2969,2.8,0.5625,1,79,15409.20253164557
LAE09,NO,4,17.11,6,3,4,5,4,3,0,0,0.75,0.5,0.5,0.75,1,1,4,2,0,4,4,2,3,0,4,1,16,13001,learn,learn,6047,2.8,0.5625,1,79,15409.20253164557
LAE09,NO,4,17.11,6,3,4,5,4,3,0,0,0.75,0.5,0.5,0.75,1,1,4,2,0,4,4,2,3,0,4,1,17,22753,alternative,alternative,476,2.8,0.5625,1,79,15409.20253164557
LAE09,NO,4,17.11,6,3,4,5,4,3,0,0,0.75,0.5,0.5,0.75,1,1,4,2,0,4,4,2,3,0,4,1,18,17626,muscle,muscle,694,2.8,0.5625,1,79,15409.20253164557
LAE09,NO,4,17.11,6,3,4,5,4,3,0,0,0.75,0.5,0.5,0.75,1,1,4,2,0,4,4,2,3,0,4,1,19,22646,scare,scare,1712,2.8,0.5625,1,79,15409.20253164557
LAE09,NO,4,17.11,6,3,4,5,4,3,0,0,0.75,0.5,0.5,0.75,1,1,4,2,0,4,4,2,3,0,4,1,20,27885,backwards,backwards,667,2.8,0.5625,1,79,15409.20253164557
LAE09,NO,4,17.11,6,3,4,5,4,3,0,0,0.75,0.5,0.5,0.75,1,1,4,2,0,4,4,2,3,0,4,1,21,1325,keep,keep,35846,2.8,0.5625,1,79,15409.20253164557
LAE09,NO,4,17.11,6,3,4,5,4,3,0,0,0.75,0.5,0.5,0.75,1,1,4,2,0,4,4,2,3,0,4,1,22,13484,grown,grown,1275,2.8,0.5625,1,79,15409.20253164557
LAE09,NO,4,17.11,6,3,4,5,4,3,0,0,0.75,0.5,0.5,0.75,1,1,4,2,0,4,4,2,3,0,4,1,23,1307,roar,roar,205,2.8,0.5625,1,79,15409.20253164557
LAE09,NO,4,17.11,6,3,4,5,4,3,0,0,0.75,0.5,0.5,0.75,1,1,4,2,0,4,4,2,3,0,4,1,24,11487,heavy,heavy,2412,2.8,0.5625,1,79,15409.20253164557
LAE09,NO,4,17.11,6,3,4,5,4,3,0,0,0.75,0.5,0.5,0.75,1,1,4,2,0,4,4,2,3,0,4,1,25,18362,applause,applause,576,2.8,0.5625,1,79,15409.20253164557
LAE09,NO,4,17.11,6,3,4,5,4,3,0,0,0.75,0.5,0.5,0.75,1,1,4,2,0,4,4,2,3,0,4,1,26,12439,store,store,4178,2.8,0.5625,1,79,15409.20253164557
LAE09,NO,4,17.11,6,3,4,5,4,3,0,0,0.75,0.5,0.5,0.75,1,1,4,2,0,4,4,2,3,0,4,1,27,11461,distance,distance,1306,2.8,0.5625,1,79,15409.20253164557
LAE09,NO,4,17.11,6,3,4,5,4,3,0,0,0.75,0.5,0.5,0.75,1,1,4,2,0,4,4,2,3,0,4,1,28,13402,thumb,thumb,603,2.8,0.5625,1,79,15409.20253164557
LAE09,NO,4,17.11,6,3,4,5,4,3,0,0,0.75,0.5,0.5,0.75,1,1,4,2,0,4,4,2,3,0,4,1,29,15161,important,important,10587,2.8,0.5625,1,79,15409.20253164557
LAE09,NO,4,17.11,6,3,4,5,4,3,0,0,0.75,0.5,0.5,0.75,1,1,4,2,0,4,4,2,3,0,4,1,30,41647,sensitive,sensitive,1149,2.8,0.5625,1,79,15409.20253164557
LAE09,NO,4,17.11,6,3,4,5,4,3,0,0,0.75,0.5,0.5,0.75,1,1,4,2,0,4,4,2,3,0,4,1,31,12647,tape,tape,3511,2.8,0.5625,1,79,15409.20253164557
LAE09,NO,4,17.11,6,3,4,5,4,3,0,0,0.75,0.5,0.5,0.75,1,1,4,2,0,4,4,2,3,0,4,1,32,12204,hurt,hurt,12564,2.8,0.5625,1,79,15409.20253164557
LAE09,NO,4,17.11,6,3,4,5,4,3,0,0,0.75,0.5,0.5,0.75,1,1,4,2,0,4,4,2,3,0,4,1,33,1308,liberty,liberty,849,2.8,0.5625,1,79,15409.20253164557
LAE09,NO,4,17.11,6,3,4,5,4,3,0,0,0.75,0.5,0.5,0.75,1,1,4,2,0,4,4,2,3,0,4,1,34,21729,wheat,wheat,293,2.8,0.5625,1,79,15409.20253164557
LAE09,NO,4,17.11,6,3,4,5,4,3,0,0,0.75,0.5,0.5,0.75,1,1,4,2,0,4,4,2,3,0,4,1,35,20441,example,example,1527,2.8,0.5625,1,79,15409.20253164557
LAE09,NO,4,17.11,6,3,4,5,4,3,0,0,0.75,0.5,0.5,0.75,1,1,4,2,0,4,4,2,3,0,4,1,36,14195,dignity,dignity,551,2.8,0.5625,1,79,15409.20253164557
LAE09,NO,4,17.11,6,3,4,5,4,3,0,0,0.75,0.5,0.5,0.75,1,1,4,2,0,4,4,2,3,0,4,1,37,19938,purched,perched,30,2.8,0.5625,0,79,15409.20253164557
LAE09,NO,4,17.11,6,3,4,5,4,3,0,0,0.75,0.5,0.5,0.75,1,1,4,2,0,4,4,2,3,0,4,1,38,40056,believe,believe,31882,2.8,0.5625,1,79,15409.20253164557
LAE09,NO,4,17.11,6,3,4,5,4,3,0,0,0.75,0.5,0.5,0.75,1,1,4,2,0,4,4,2,3,0,4,1,39,18602,resource,resource,83,2.8,0.5625,1,79,15409.20253164557
LAE09,NO,4,17.11,6,3,4,5,4,3,0,0,0.75,0.5,0.5,0.75,1,1,4,2,0,4,4,2,3,0,4,1,40,25958,compliment,compliment,523,2.8,0.5625,1,79,15409.20253164557
LAE09,NO,4,17.11,6,3,4,5,4,3,0,0,0.75,0.5,0.5,0.75,1,1,4,2,0,4,4,2,3,0,4,1,41,11498,ghost,ghost,1866,2.8,0.5625,1,79,15409.20253164557
LAE09,NO,4,17.11,6,3,4,5,4,3,0,0,0.75,0.5,0.5,0.75,1,1,4,2,0,4,4,2,3,0,4,1,42,12996,basement,basement,1074,2.8,0.5625,1,79,15409.20253164557
LAE09,NO,4,17.11,6,3,4,5,4,3,0,0,0.75,0.5,0.5,0.75,1,1,4,2,0,4,4,2,3,0,4,1,43,11005,salmon,salmon,334,2.8,0.5625,1,79,15409.20253164557
LAE09,NO,4,17.11,6,3,4,5,4,3,0,0,0.75,0.5,0.5,0.75,1,1,4,2,0,4,4,2,3,0,4,1,44,11951,sudden,sudden,1707,2.8,0.5625,1,79,15409.20253164557
LAE09,NO,4,17.11,6,3,4,5,4,3,0,0,0.75,0.5,0.5,0.75,1,1,4,2,0,4,4,2,3,0,4,1,45,11324,fought,fought,1362,2.8,0.5625,1,79,15409.20253164557
LAE09,NO,4,17.11,6,3,4,5,4,3,0,0,0.75,0.5,0.5,0.75,1,1,4,2,0,4,4,2,3,0,4,1,46,27161,few,few,15393,2.8,0.5625,1,79,15409.20253164557
LAE09,NO,4,17.11,6,3,4,5,4,3,0,0,0.75,0.5,0.5,0.75,1,1,4,2,0,4,4,2,3,0,4,1,47,14603,lake,lake,1836,2.8,0.5625,1,79,15409.20253164557
LAE09,NO,4,17.11,6,3,4,5,4,3,0,0,0.75,0.5,0.5,0.75,1,1,4,2,0,4,4,2,3,0,4,1,48,22199,nostrils,nostrils,82,2.8,0.5625,1,79,15409.20253164557
LAE09,NO,4,17.11,6,3,4,5,4,3,0,0,0.75,0.5,0.5,0.75,1,1,4,2,0,4,4,2,3,0,4,1,49,13964,please,please,56149,2.8,0.5625,1,79,15409.20253164557
LAE09,NO,4,17.11,6,3,4,5,4,3,0,0,0.75,0.5,0.5,0.75,1,1,4,2,0,4,4,2,3,0,4,1,50,21892,hearth,hearth,34,2.8,0.5625,1,79,15409.20253164557
LAE09,NO,4,17.11,6,3,4,5,4,3,0,0,0.75,0.5,0.5,0.75,1,1,4,2,0,4,4,2,3,0,4,1,51,28684,pavement,pavement,103,2.8,0.5625,1,79,15409.20253164557
LAE09,NO,4,17.11,6,3,4,5,4,3,0,0,0.75,0.5,0.5,0.75,1,1,4,2,0,4,4,2,3,0,4,1,52,11883,stream,stream,410,2.8,0.5625,1,79,15409.20253164557
LAE09,NO,4,17.11,6,3,4,5,4,3,0,0,0.75,0.5,0.5,0.75,1,1,4,2,0,4,4,2,3,0,4,1,53,11006,study,study,2501,2.8,0.5625,1,79,15409.20253164557
LAE09,NO,4,17.11,6,3,4,5,4,3,0,0,0.75,0.5,0.5,0.75,1,1,4,2,0,4,4,2,3,0,4,1,54,11241,sleep,sleep,11625,2.8,0.5625,1,79,15409.20253164557
LAE09,NO,4,17.11,6,3,4,5,4,3,0,0,0.75,0.5,0.5,0.75,1,1,4,2,0,4,4,2,3,0,4,1,55,15646,wise,wise,1452,2.8,0.5625,1,79,15409.20253164557
LAE09,NO,4,17.11,6,3,4,5,4,3,0,0,0.75,0.5,0.5,0.75,1,1,4,2,0,4,4,2,3,0,4,1,56,12043,between,between,8932,2.8,0.5625,1,79,15409.20253164557
LAE09,NO,4,17.11,6,3,4,5,4,3,0,0,0.75,0.5,0.5,0.75,1,1,4,2,0,4,4,2,3,0,4,1,57,9805,need,need,66040,2.8,0.5625,1,79,15409.20253164557
LAE09,NO,4,17.11,6,3,4,5,4,3,0,0,0.75,0.5,0.5,0.75,1,1,4,2,0,4,4,2,3,0,4,1,58,46678,wreath,wreath,54,2.8,0.5625,1,79,15409.20253164557
LAE09,NO,4,17.11,6,3,4,5,4,3,0,0,0.75,0.5,0.5,0.75,1,1,4,2,0,4,4,2,3,0,4,1,59,10361,easy,easy,13551,2.8,0.5625,1,79,15409.20253164557
LAE09,NO,4,17.11,6,3,4,5,4,3,0,0,0.75,0.5,0.5,0.75,1,1,4,2,0,4,4,2,3,0,4,1,60,12673,skate,skate,301,2.8,0.5625,1,79,15409.20253164557
LAE09,NO,4,17.11,6,3,4,5,4,3,0,0,0.75,0.5,0.5,0.75,1,1,4,2,0,4,4,2,3,0,4,1,61,21385,wagon,wagon,906,2.8,0.5625,1,79,15409.20253164557
LAE09,NO,4,17.11,6,3,4,5,4,3,0,0,0.75,0.5,0.5,0.75,1,1,4,2,0,4,4,2,3,0,4,1,62,988,vero,vero,NA,2.8,0.5625,1,79,15409.20253164557
LAE09,NO,4,17.11,6,3,4,5,4,3,0,0,0.75,0.5,0.5,0.75,1,1,4,2,0,4,4,2,3,0,4,1,63,1092,rain,rain,2494,2.8,0.5625,1,79,15409.20253164557
LAE09,NO,4,17.11,6,3,4,5,4,3,0,0,0.75,0.5,0.5,0.75,1,1,4,2,0,4,4,2,3,0,4,1,64,10534,choose,choose,2451,2.8,0.5625,1,79,15409.20253164557
LAE09,NO,4,17.11,6,3,4,5,4,3,0,0,0.75,0.5,0.5,0.75,1,1,4,2,0,4,4,2,3,0,4,1,65,12763,every,every,28007,2.8,0.5625,1,79,15409.20253164557
LAE09,NO,4,17.11,6,3,4,5,4,3,0,0,0.75,0.5,0.5,0.75,1,1,4,2,0,4,4,2,3,0,4,1,66,12285,goat,goat,537,2.8,0.5625,1,79,15409.20253164557
LAE09,NO,4,17.11,6,3,4,5,4,3,0,0,0.75,0.5,0.5,0.75,1,1,4,2,0,4,4,2,3,0,4,1,67,14605,demon,demon,1593,2.8,0.5625,1,79,15409.20253164557
LAE09,NO,4,17.11,6,3,4,5,4,3,0,0,0.75,0.5,0.5,0.75,1,1,4,2,0,4,4,2,3,0,4,1,68,1243,street,street,7557,2.8,0.5625,1,79,15409.20253164557
LAE09,NO,4,17.11,6,3,4,5,4,3,0,0,0.75,0.5,0.5,0.75,1,1,4,2,0,4,4,2,3,0,4,1,69,12095,assure,assure,1021,2.8,0.5625,1,79,15409.20253164557
LAE09,NO,4,17.11,6,3,4,5,4,3,0,0,0.75,0.5,0.5,0.75,1,1,4,2,0,4,4,2,3,0,4,1,70,13504,travel,travel,1702,2.8,0.5625,1,79,15409.20253164557
LAE09,NO,4,17.11,6,3,4,5,4,3,0,0,0.75,0.5,0.5,0.75,1,1,4,2,0,4,4,2,3,0,4,1,71,11823,coat,coat,2146,2.8,0.5625,1,79,15409.20253164557
LAE09,NO,4,17.11,6,3,4,5,4,3,0,0,0.75,0.5,0.5,0.75,1,1,4,2,0,4,4,2,3,0,4,1,72,12918,sheep,sheep,685,2.8,0.5625,1,79,15409.20253164557
LAE09,NO,4,17.11,6,3,4,5,4,3,0,0,0.75,0.5,0.5,0.75,1,1,4,2,0,4,4,2,3,0,4,1,73,11484,answer,answer,8986,2.8,0.5625,1,79,15409.20253164557
LAE09,NO,4,17.11,6,3,4,5,4,3,0,0,0.75,0.5,0.5,0.75,1,1,4,2,0,4,4,2,3,0,4,1,74,28757,condense,condense,14,2.8,0.5625,1,79,15409.20253164557
LAE09,NO,4,17.11,6,3,4,5,4,3,0,0,0.75,0.5,0.5,0.75,1,1,4,2,0,4,4,2,3,0,4,1,75,9887,toward,toward,1169,2.8,0.5625,1,79,15409.20253164557
LAE09,NO,4,17.11,6,3,4,5,4,3,0,0,0.75,0.5,0.5,0.75,1,1,4,2,0,4,4,2,3,0,4,1,76,12911,dream,dream,6798,2.8,0.5625,1,79,15409.20253164557
LAE09,NO,4,17.11,6,3,4,5,4,3,0,0,0.75,0.5,0.5,0.75,1,1,4,2,0,4,4,2,3,0,4,1,77,13246,explain,explain,5670,2.8,0.5625,1,79,15409.20253164557
LAE09,NO,4,17.11,6,3,4,5,4,3,0,0,0.75,0.5,0.5,0.75,1,1,4,2,0,4,4,2,3,0,4,1,78,16207,wait,wait,42343,2.8,0.5625,1,79,15409.20253164557
LAE09,NO,4,17.11,6,3,4,5,4,3,0,0,0.75,0.5,0.5,0.75,1,1,4,2,0,4,4,2,3,0,4,1,79,10207,take,take,96443,2.8,0.5625,1,79,15409.20253164557
LAE09,NO,4,17.11,6,3,4,5,4,3,0,0,0.75,0.5,0.5,0.75,1,1,4,2,0,4,4,2,3,0,4,1,80,15021,several,several,1978,2.8,0.5625,1,79,15409.20253164557
LAE10,NO,4,17.7,6,3,3,3,4,3,0,0,0.25,0,0.25,0.25,0.25,0.25,2,1,0,3,1,4,3,2,4,4,1,18984,grown,grown,1275,1.4,0.15625,1,76,16616.21052631579
LAE10,NO,4,17.7,6,3,3,3,4,3,0,0,0.25,0,0.25,0.25,0.25,0.25,2,1,0,3,1,4,3,2,4,4,2,18021,need,need,66040,1.4,0.15625,1,76,16616.21052631579
LAE10,NO,4,17.7,6,3,3,3,4,3,0,0,0.25,0,0.25,0.25,0.25,0.25,2,1,0,3,1,4,3,2,4,4,3,11393,coat,coat,2146,1.4,0.15625,1,76,16616.21052631579
LAE10,NO,4,17.7,6,3,3,3,4,3,0,0,0.25,0,0.25,0.25,0.25,0.25,2,1,0,3,1,4,3,2,4,4,4,11698,every,every,28007,1.4,0.15625,1,76,16616.21052631579
LAE10,NO,4,17.7,6,3,3,3,4,3,0,0,0.25,0,0.25,0.25,0.25,0.25,2,1,0,3,1,4,3,2,4,4,5,36039,applause,applause,576,1.4,0.15625,1,76,16616.21052631579
LAE10,NO,4,17.7,6,3,3,3,4,3,0,0,0.25,0,0.25,0.25,0.25,0.25,2,1,0,3,1,4,3,2,4,4,6,11226,answer,answer,8986,1.4,0.15625,1,76,16616.21052631579
LAE10,NO,4,17.7,6,3,3,3,4,3,0,0,0.25,0,0.25,0.25,0.25,0.25,2,1,0,3,1,4,3,2,4,4,7,19734,nostrils,nostrils,82,1.4,0.15625,1,76,16616.21052631579
LAE10,NO,4,17.7,6,3,3,3,4,3,0,0,0.25,0,0.25,0.25,0.25,0.25,2,1,0,3,1,4,3,2,4,4,8,12449,scare,scare,1712,1.4,0.15625,1,76,16616.21052631579
LAE10,NO,4,17.7,6,3,3,3,4,3,0,0,0.25,0,0.25,0.25,0.25,0.25,2,1,0,3,1,4,3,2,4,4,9,13149,learn,learn,6047,1.4,0.15625,1,76,16616.21052631579
LAE10,NO,4,17.7,6,3,3,3,4,3,0,0,0.25,0,0.25,0.25,0.25,0.25,2,1,0,3,1,4,3,2,4,4,10,14532,demon,demon,1593,1.4,0.15625,1,76,16616.21052631579
LAE10,NO,4,17.7,6,3,3,3,4,3,0,0,0.25,0,0.25,0.25,0.25,0.25,2,1,0,3,1,4,3,2,4,4,11,26352,backwards,backwards,667,1.4,0.15625,1,76,16616.21052631579
LAE10,NO,4,17.7,6,3,3,3,4,3,0,0,0.25,0,0.25,0.25,0.25,0.25,2,1,0,3,1,4,3,2,4,4,12,26834,deep,deep,3896,1.4,0.15625,1,76,16616.21052631579
LAE10,NO,4,17.7,6,3,3,3,4,3,0,0,0.25,0,0.25,0.25,0.25,0.25,2,1,0,3,1,4,3,2,4,4,13,19798,toward,toward,1169,1.4,0.15625,1,76,16616.21052631579
LAE10,NO,4,17.7,6,3,3,3,4,3,0,0,0.25,0,0.25,0.25,0.25,0.25,2,1,0,3,1,4,3,2,4,4,14,13959,travel,travel,1702,1.4,0.15625,1,76,16616.21052631579
LAE10,NO,4,17.7,6,3,3,3,4,3,0,0,0.25,0,0.25,0.25,0.25,0.25,2,1,0,3,1,4,3,2,4,4,15,14604,dream,dream,6798,1.4,0.15625,1,76,16616.21052631579
LAE10,NO,4,17.7,6,3,3,3,4,3,0,0,0.25,0,0.25,0.25,0.25,0.25,2,1,0,3,1,4,3,2,4,4,16,22443,interesting,interesting,4421,1.4,0.15625,1,76,16616.21052631579
LAE10,NO,4,17.7,6,3,3,3,4,3,0,0,0.25,0,0.25,0.25,0.25,0.25,2,1,0,3,1,4,3,2,4,4,17,16203,goat,goat,537,1.4,0.15625,1,76,16616.21052631579
LAE10,NO,4,17.7,6,3,3,3,4,3,0,0,0.25,0,0.25,0.25,0.25,0.25,2,1,0,3,1,4,3,2,4,4,18,24836,dignity,dignity,551,1.4,0.15625,1,76,16616.21052631579
LAE10,NO,4,17.7,6,3,3,3,4,3,0,0,0.25,0,0.25,0.25,0.25,0.25,2,1,0,3,1,4,3,2,4,4,19,15802,store,store,4178,1.4,0.15625,1,76,16616.21052631579
LAE10,NO,4,17.7,6,3,3,3,4,3,0,0,0.25,0,0.25,0.25,0.25,0.25,2,1,0,3,1,4,3,2,4,4,20,12208,rain,rain,2494,1.4,0.15625,1,76,16616.21052631579
LAE10,NO,4,17.7,6,3,3,3,4,3,0,0,0.25,0,0.25,0.25,0.25,0.25,2,1,0,3,1,4,3,2,4,4,21,25234,ghost,ghost,1866,1.4,0.15625,1,76,16616.21052631579
LAE10,NO,4,17.7,6,3,3,3,4,3,0,0,0.25,0,0.25,0.25,0.25,0.25,2,1,0,3,1,4,3,2,4,4,22,13316,distance,distance,1306,1.4,0.15625,1,76,16616.21052631579
LAE10,NO,4,17.7,6,3,3,3,4,3,0,0,0.25,0,0.25,0.25,0.25,0.25,2,1,0,3,1,4,3,2,4,4,23,13163,hole,hole,2969,1.4,0.15625,1,76,16616.21052631579
LAE10,NO,4,17.7,6,3,3,3,4,3,0,0,0.25,0,0.25,0.25,0.25,0.25,2,1,0,3,1,4,3,2,4,4,24,25159,wheat,wheat,293,1.4,0.15625,1,76,16616.21052631579
LAE10,NO,4,17.7,6,3,3,3,4,3,0,0,0.25,0,0.25,0.25,0.25,0.25,2,1,0,3,1,4,3,2,4,4,25,1683,stream,stream,410,1.4,0.15625,1,76,16616.21052631579
LAE10,NO,4,17.7,6,3,3,3,4,3,0,0,0.25,0,0.25,0.25,0.25,0.25,2,1,0,3,1,4,3,2,4,4,26,15154,captain,captain,10622,1.4,0.15625,1,76,16616.21052631579
LAE10,NO,4,17.7,6,3,3,3,4,3,0,0,0.25,0,0.25,0.25,0.25,0.25,2,1,0,3,1,4,3,2,4,4,27,21075,pavement,pavement,103,1.4,0.15625,1,76,16616.21052631579
LAE10,NO,4,17.7,6,3,3,3,4,3,0,0,0.25,0,0.25,0.25,0.25,0.25,2,1,0,3,1,4,3,2,4,4,28,99238,reath,wreath,54,1.4,0.15625,0,76,16616.21052631579
LAE10,NO,4,17.7,6,3,3,3,4,3,0,0,0.25,0,0.25,0.25,0.25,0.25,2,1,0,3,1,4,3,2,4,4,29,40748,culpert,culprit,55,1.4,0.15625,0,76,16616.21052631579
LAE10,NO,4,17.7,6,3,3,3,4,3,0,0,0.25,0,0.25,0.25,0.25,0.25,2,1,0,3,1,4,3,2,4,4,30,14598,important,important,10587,1.4,0.15625,1,76,16616.21052631579
LAE10,NO,4,17.7,6,3,3,3,4,3,0,0,0.25,0,0.25,0.25,0.25,0.25,2,1,0,3,1,4,3,2,4,4,31,15776,mystery,mystery,1171,1.4,0.15625,1,76,16616.21052631579
LAE10,NO,4,17.7,6,3,3,3,4,3,0,0,0.25,0,0.25,0.25,0.25,0.25,2,1,0,3,1,4,3,2,4,4,32,13882,wise,wise,1452,1.4,0.15625,1,76,16616.21052631579
LAE10,NO,4,17.7,6,3,3,3,4,3,0,0,0.25,0,0.25,0.25,0.25,0.25,2,1,0,3,1,4,3,2,4,4,33,12281,explain,explain,5670,1.4,0.15625,1,76,16616.21052631579
LAE10,NO,4,17.7,6,3,3,3,4,3,0,0,0.25,0,0.25,0.25,0.25,0.25,2,1,0,3,1,4,3,2,4,4,34,33961,faught,fought,1362,1.4,0.15625,0,76,16616.21052631579
LAE10,NO,4,17.7,6,3,3,3,4,3,0,0,0.25,0,0.25,0.25,0.25,0.25,2,1,0,3,1,4,3,2,4,4,35,12856,keep,keep,35846,1.4,0.15625,1,76,16616.21052631579
LAE10,NO,4,17.7,6,3,3,3,4,3,0,0,0.25,0,0.25,0.25,0.25,0.25,2,1,0,3,1,4,3,2,4,4,36,13641,skate,skate,301,1.4,0.15625,1,76,16616.21052631579
LAE10,NO,4,17.7,6,3,3,3,4,3,0,0,0.25,0,0.25,0.25,0.25,0.25,2,1,0,3,1,4,3,2,4,4,37,28515,assure,assure,1021,1.4,0.15625,1,76,16616.21052631579
LAE10,NO,4,17.7,6,3,3,3,4,3,0,0,0.25,0,0.25,0.25,0.25,0.25,2,1,0,3,1,4,3,2,4,4,38,14045,several,several,1978,1.4,0.15625,1,76,16616.21052631579
LAE10,NO,4,17.7,6,3,3,3,4,3,0,0,0.25,0,0.25,0.25,0.25,0.25,2,1,0,3,1,4,3,2,4,4,39,11484,sleep,sleep,11625,1.4,0.15625,1,76,16616.21052631579
LAE10,NO,4,17.7,6,3,3,3,4,3,0,0,0.25,0,0.25,0.25,0.25,0.25,2,1,0,3,1,4,3,2,4,4,40,19477,choose,choose,2451,1.4,0.15625,1,76,16616.21052631579
LAE10,NO,4,17.7,6,3,3,3,4,3,0,0,0.25,0,0.25,0.25,0.25,0.25,2,1,0,3,1,4,3,2,4,4,41,22918,condense,condense,14,1.4,0.15625,1,76,16616.21052631579
LAE10,NO,4,17.7,6,3,3,3,4,3,0,0,0.25,0,0.25,0.25,0.25,0.25,2,1,0,3,1,4,3,2,4,4,42,12525,take,take,96443,1.4,0.15625,1,76,16616.21052631579
LAE10,NO,4,17.7,6,3,3,3,4,3,0,0,0.25,0,0.25,0.25,0.25,0.25,2,1,0,3,1,4,3,2,4,4,43,17322,muscle,muscle,694,1.4,0.15625,1,76,16616.21052631579
LAE10,NO,4,17.7,6,3,3,3,4,3,0,0,0.25,0,0.25,0.25,0.25,0.25,2,1,0,3,1,4,3,2,4,4,44,31723,thumb,thumb,603,1.4,0.15625,1,76,16616.21052631579
LAE10,NO,4,17.7,6,3,3,3,4,3,0,0,0.25,0,0.25,0.25,0.25,0.25,2,1,0,3,1,4,3,2,4,4,45,12994,few,few,15393,1.4,0.15625,1,76,16616.21052631579
LAE10,NO,4,17.7,6,3,3,3,4,3,0,0,0.25,0,0.25,0.25,0.25,0.25,2,1,0,3,1,4,3,2,4,4,46,14643,lake,lake,1836,1.4,0.15625,1,76,16616.21052631579
LAE10,NO,4,17.7,6,3,3,3,4,3,0,0,0.25,0,0.25,0.25,0.25,0.25,2,1,0,3,1,4,3,2,4,4,47,19285,sudden,sudden,1707,1.4,0.15625,1,76,16616.21052631579
LAE10,NO,4,17.7,6,3,3,3,4,3,0,0,0.25,0,0.25,0.25,0.25,0.25,2,1,0,3,1,4,3,2,4,4,48,16442,compliment,compliment,523,1.4,0.15625,1,76,16616.21052631579
LAE10,NO,4,17.7,6,3,3,3,4,3,0,0,0.25,0,0.25,0.25,0.25,0.25,2,1,0,3,1,4,3,2,4,4,49,16456,resource,resource,83,1.4,0.15625,1,76,16616.21052631579
LAE10,NO,4,17.7,6,3,3,3,4,3,0,0,0.25,0,0.25,0.25,0.25,0.25,2,1,0,3,1,4,3,2,4,4,50,9085,smoke,smoke,3337,1.4,0.15625,1,76,16616.21052631579
LAE10,NO,4,17.7,6,3,3,3,4,3,0,0,0.25,0,0.25,0.25,0.25,0.25,2,1,0,3,1,4,3,2,4,4,51,12619,street,street,7557,1.4,0.15625,1,76,16616.21052631579
LAE10,NO,4,17.7,6,3,3,3,4,3,0,0,0.25,0,0.25,0.25,0.25,0.25,2,1,0,3,1,4,3,2,4,4,52,2105,purched,perched,30,1.4,0.15625,0,76,16616.21052631579
LAE10,NO,4,17.7,6,3,3,3,4,3,0,0,0.25,0,0.25,0.25,0.25,0.25,2,1,0,3,1,4,3,2,4,4,53,39399,nuisance,nuisance,164,1.4,0.15625,1,76,16616.21052631579
LAE10,NO,4,17.7,6,3,3,3,4,3,0,0,0.25,0,0.25,0.25,0.25,0.25,2,1,0,3,1,4,3,2,4,4,54,14428,senators,senators,120,1.4,0.15625,1,76,16616.21052631579
LAE10,NO,4,17.7,6,3,3,3,4,3,0,0,0.25,0,0.25,0.25,0.25,0.25,2,1,0,3,1,4,3,2,4,4,55,13965,liberty,liberty,849,1.4,0.15625,1,76,16616.21052631579
LAE10,NO,4,17.7,6,3,3,3,4,3,0,0,0.25,0,0.25,0.25,0.25,0.25,2,1,0,3,1,4,3,2,4,4,56,22362,believe,believe,31882,1.4,0.15625,1,76,16616.21052631579
